"dates","times","X","Subject","eprocs","Task_type","Procedure","Sample","objlist","PairList","ITIDur","ObjDur","startPosition","startFacing","paths","e_paths","Vid_paths","select_made","StartAt","EndAt","end_location","end_rotation","accuracy","nodesturns_count","nodes_count","turns_count","average_RT","final_movevid_OT","trial_starttime","trial_endtime","trial_duration","getready_rttime","iti_onset","startat_onset","goal_onset","session_time","Position1..Num.","Position2..Num.","Euc.Distance","Euclid.S.L","Euclid.S.M.L","Path.Distance","Path.S.L","Path.S.M.L","Num.Nodes","Nodes.S.L","Nodes.S.M.L","Num.Nodes...Turns..button.presses.","Press.S.L","Press.S.M.L","fmv_duration","path_dist_trav","euc_dist_trav","path_efficiencies","path_efficiencies_acc_only"
2017-02-07,"15:10:46",1,2,"Explore-002-1","1",NA,NA,NA,NA,NA,NA,NA,NA,"T U U R R Q Q T T X X X X V V X Z P P Z X T T Q H H G G L L G A A G G H H B B C C I C C D E E M M O M M S S R R R R U U T T T X X X T U W U T X X V Y Y V X Z P P Z X T T Q Q R R R R J J K J J J J D D E E M M O M M E E F F N N F F E E M S S R R U U W U T T T X X V V X X T T Q Q Q H H G G L L G A A G G H H H H B B C C I C C D E E E F F F E E E D D J J K J","U2 U1 R1 R4 Q4 Q3 T3 T4 X4 X3 X2 X3 V2 V1 X1 Z1 P2 P3 Z2 X2 T2 T1 Q1 H1 H4 G4 G3 L2 L1 G1 A4 A3 G3 G2 H2 H1 B1 B2 C2 C3 I2 C1 C2 D2 E2 E3 M3 M4 O2 M2 M3 S3 S4 R4 R1 R4 R3 U3 U4 T4 T1 T4 X4 X3 X2 T2 U2 W4 U4 T4 X4 X3 V2 Y3 Y4 V1 X1 Z1 P2 P3 Z2 X2 T2 T1 Q1 Q2 R2 R3 R2 R1 J1 J2 K2 J4 J3 J2 J1 D1 D2 E2 E3 M3 M4 O2 M2 M1 E1 E2 F2 F3 N3 N1 F1 F4 E4 E3 M3 S3 S4 R4 R3 U3 U2 W4 U4 T4 T1 T4 X4 X3 V2 V1 X1 X2 T2 T1 Q1 Q2 Q1 H1 H4 G4 G3 L2 L1 G1 A4 A3 G3 G2 H2 H3 H4 H1 B1 B2 C2 C3 I2 C1 C2 D2 E2 E3 E2 F2 F3 F4 E4 E3 E4 D4 D3 J3 J2 K2 J4 NA","T2_U2 U2_U1 U1_R1 R1_R4 R4_Q4 Q4_Q3 Q3_T3 T3_T4 T4_X4 X4_X3 X3_X2 X2_X3 X3_V2 V2_V1 V1_X1 X1_Z1 Z1_P2 P2_P3 P3_Z2 Z2_X2 X2_T2 T2_T1 T1_Q1 Q1_H1 H1_H4 H4_G4 G4_G3 G3_L2 L2_L1 L1_G1 G1_A4 A4_A3 A3_G3 G3_G2 G2_H2 H2_H1 H1_B1 B1_B2 B2_C2 C2_C3 C3_I2 I2_C1 C1_C2 C2_D2 D2_E2 E2_E3 E3_M3 M3_M4 M4_O2 O2_M2 M2_M3 M3_S3 S3_S4 S4_R4 R4_R1 R1_R4 R4_R3 R3_U3 U3_U4 U4_T4 T4_T1 T1_T4 T4_X4 X4_X3 X3_X2 X2_T2 T2_U2 U2_W4 W4_U4 U4_T4 T4_X4 X4_X3 X3_V2 V2_Y3 Y2_Y4 Y4_V1 V1_X1 X1_Z1 Z1_P2 P2_P3 P3_Z2 Z2_X2 X2_T2 T2_T1 T1_Q1 Q1_Q2 Q2_R2 R2_R3 R3_R2 R2_R1 R1_J1 J1_J2 J2_K2 K2_J4 J4_J3 J3_J2 J2_J1 J1_D1 D1_D2 D2_E2 E2_E3 E3_M3 M3_M4 M4_O2 O2_M2 M2_M1 M1_E1 E1_E2 E2_F2 F2_F3 F3_N3 N3_N1 N1_F1 F1_F4 F4_E4 E4_E3 E3_M3 M3_S3 S3_S4 S4_R4 R4_R3 R3_U3 U3_U2 U2_W4 W4_U4 U4_T4 T4_T1 T1_T4 T4_X4 X4_X3 X3_V2 V2_V1 V1_X1 X1_X2 X2_T2 T2_T1 T1_Q1 Q1_Q2 Q2_Q1 Q1_H1 H1_H4 H4_G4 G4_G3 G3_L2 L2_L1 L1_G1 G1_A4 A4_A3 A3_G3 G3_G2 G2_H2 H2_H3 H3_H4 H4_H1 H1_B1 B1_B2 B2_C2 C2_C3 C3_I2 I2_C1 C1_C2 C2_D2 D2_E2 E2_E3 E3_E2 E2_F2 F2_F3 F3_F4 F4_E4 E4_E3 E3_E4 E4_D4 D4_D3 D3_J3 J3_J2 J2_K2 K2_J4",NA,NA,NA,"J",4,NA,178,95,83,338.661016949153,NA,32965,518379,485414,32951,NA,NA,NA,"15:10:46",NA,NA,NA,NA,NA,NA,NA,NA,NA,NA,NA,NA,NA,NA,NA,300.75,9.83933432707721,NA,NA
2017-02-07,"15:20:22",2,2,"Explore-002-2","2",NA,NA,NA,NA,NA,NA,NA,NA,"E D D D C C I C C B B H H G G L L G A A G G H H Q T T U W U U U T X X V V X Z P P Z X T T Q H H G G L L G G H H Q T T T T X X V V X Z P P Z X T U W U U R R R R S S M M O M M M M E E E E F F F E E E D D J J K J J R R R R R R R U U U R J J K J J D D C C I C C C C B B H H G G L L G A A G G H H H H B B C C I C C D E E E F F F E E M M O M M S S R R R R U U W","D4 D3 D4 C4 C3 I2 C1 C4 B4 B3 H3 H4 G4 G3 L2 L1 G1 A4 A3 G3 G2 H2 H3 Q3 T3 T2 U2 W4 U4 U1 U4 T4 X4 X3 V2 V1 X1 Z1 P2 P3 Z2 X2 T2 T1 Q1 H1 H4 G4 G3 L2 L1 G1 G2 H2 H3 Q3 T3 T2 T1 T4 X4 X3 V2 V1 X1 Z1 P2 P3 Z2 X2 T2 U2 W4 U4 U1 R1 R4 R1 R2 S2 S1 M1 M4 O2 M2 M3 M4 M1 E1 E4 E3 E2 F2 F3 F4 E4 E3 E4 D4 D3 J3 J2 K2 J4 J3 R3 R2 R3 R4 R1 R2 R3 U3 U2 U1 R1 J1 J2 K2 J4 J1 D1 D4 C4 C3 I2 C1 C2 C3 C4 B4 B3 H3 H4 G4 G3 L2 L1 G1 A4 A3 G3 G2 H2 H3 H4 H1 B1 B2 C2 C3 I2 C1 C2 D2 E2 E3 E2 F2 F3 F4 E4 E3 M3 M4 O2 M2 M3 S3 S4 R4 R1 R4 R3 U3 U2 W4 NA","E4_D4 D4_D3 D3_D4 D4_C4 C4_C3 C3_I2 I2_C1 C1_C4 C4_B4 B4_B3 B3_H3 H3_H4 H4_G4 G4_G3 G3_L2 L2_L1 L1_G1 G1_A4 A4_A3 A3_G3 G3_G2 G2_H2 H2_H3 H3_Q3 Q3_T3 T3_T2 T2_U2 U2_W4 W4_U4 U4_U1 U1_U4 U4_T4 T4_X4 X4_X3 X3_V2 V2_V1 V1_X1 X1_Z1 Z1_P2 P2_P3 P3_Z2 Z2_X2 X2_T2 T2_T1 T1_Q1 Q1_H1 H1_H4 H4_G4 G4_G3 G3_L2 L2_L1 L1_G1 G1_G2 G2_H2 H2_H3 H3_Q3 Q3_T3 T3_T2 T2_T1 T1_T4 T4_X4 X4_X3 X3_V2 V2_V1 V1_X1 X1_Z1 Z1_P2 P2_P3 P3_Z2 Z2_X2 X2_T2 T2_U2 U2_W4 W4_U4 U4_U1 U1_R1 R1_R4 R4_R1 R1_R2 R2_S2 S2_S1 S1_M1 M1_M4 M4_O2 O2_M2 M2_M3 M3_M4 M4_M1 M1_E1 E1_E4 E4_E3 E3_E2 E2_F2 F2_F3 F3_F4 F4_E4 E4_E3 E3_E4 E4_D4 D4_D3 D3_J3 J3_J2 J2_K2 K2_J4 J4_J3 J3_R3 R3_R2 R2_R3 R3_R4 R4_R1 R1_R2 R2_R3 R3_U3 U3_U2 U2_U1 U1_R1 R1_J1 J1_J2 J2_K2 K2_J4 J4_J1 J1_D1 D1_D4 D4_C4 C4_C3 C3_I2 I2_C1 C1_C2 C2_C3 C3_C4 C4_B4 B4_B3 B3_H3 H3_H4 H4_G4 G4_G3 G3_L2 L2_L1 L1_G1 G1_A4 A4_A3 A3_G3 G3_G2 G2_H2 H2_H3 H3_H4 H4_H1 H1_B1 B1_B2 B2_C2 C2_C3 C3_I2 I2_C1 C1_C2 C2_D2 D2_E2 E2_E3 E3_E2 E2_F2 F2_F3 F3_F4 F4_E4 E4_E3 E3_M3 M3_M4 M4_O2 O2_M2 M2_M3 M3_S3 S3_S4 S4_R4 R4_R1 R1_R4 R4_R3 R3_U3 U3_U2 U2_W4",NA,NA,NA,"W",4,NA,178,90,88,300.180790960452,NA,31023,513851,482828,31002,NA,NA,NA,"15:20:22",NA,NA,NA,NA,NA,NA,NA,NA,NA,NA,NA,NA,NA,NA,NA,285.75,13.8946932315903,NA,NA
2017-02-07,"15:29:23",3,2,"Test_Trials_B_1-002-1","B1","TrialProc",1,20,8,4089.223705,2970.298489,23,4,"W U U R J D D D D E F F F E D D J J J","U4 U1 R1 J1 D1 D4 D3 D2 E2 F2 F3 F4 E4 D4 D3 J3 J2 J3","W4_U4 U4_U1 U1_R1 R1_J1 J1_D1 D1_D4 D4_D3 D3_D2 D2_E2 E2_F2 F2_F3 F3_F4 F4_E4 E4_D4 D4_D3 D3_J3 J3_J2 J2_J3",FALSE,"W","N","J",3,FALSE,19,9,10,346.388888888889,142128,98348,143746,45398,92352,143746,92378,95363,"15:29:23",23,10,10.854147,"L","L",12.25,"S","M",3,"S","S",5,"S","M",1618,31.25,10.8541466730462,2.55102040816327,NA
2017-02-07,"15:29:23",4,2,"Test_Trials_B_1-002-1","B1","TrialProc",2,61,7,5676.939823,2239.434682,11,2,"K J J R U U T X Z P P","J4 J3 R3 U3 U4 T4 X4 Z1 P2 P2","K2_J4 J4_J3 J3_R3 R3_U3 U3_U4 U4_T4 T4_X4 X4_Z1 Z1_P2 Selec",TRUE,"K","W","P",1,FALSE,11,8,3,552.2,183873,152352,184924,31572,92352,184924,147849,150100,"15:29:23",11,16,11.45098249,"L","L",23,"L","M",6,"S","M",8,"S","S",1051,23,11.4509824905988,1,NA
2017-02-07,"15:29:23",5,2,"Test_Trials_B_1-002-1","B1","TrialProc",3,67,1,5425.446684,2141.597832,16,2,"P P Z T T Q H H G G L L","P3 Z2 T2 T1 Q1 H1 H4 G4 G3 L3 L3","P2_P3 P3_Z2 Z2_T2 T2_T1 T1_Q1 Q1_H1 H1_H4 H4_G4 G4_G3 G3_L3 Selec",TRUE,"P","L","L",3,TRUE,12,7,5,549.818181818182,226552,194914,227603,31689,92352,227603,190611,192763,"15:29:23",16,12,2.263846285,"S","S",22.5,"L","M",6,"S","M",10,"L","M",1051,22.5,2.26384628453435,1,1
2017-02-07,"15:29:23",6,2,"Test_Trials_B_1-002-1","B1","TrialRevProc",4,21,2,2433.827314,2607.698604,12,2,"L L G G H H B B C D E F F F E E M M O O","L1 G1 G2 H2 H1 B1 B2 C2 D2 E2 F2 F3 F4 E4 E3 M3 M4 O2 O2","L2_L1 L1_G1 G1_G2 G2_H2 H2_H1 H1_B1 B1_B2 B2_C2 C2_D2 D2_E2 E2_F2 F2_F3 F3_F4 F4_E4 E4_E3 E3_M3 M3_M4 M4_O2 Selec",TRUE,"L","O","O",1,TRUE,20,11,9,253.368421052632,279788,238277,280839,41562,92352,280839,235658,233040,"15:29:23",12,15,8.514693183,"S","M",25.5,"L","L",8,"L","L",14,"L","L",1051,31.5,9.01387818865997,1.23529411764706,1.23529411764706
2017-02-07,"15:29:23",7,2,"Test_Trials_B_1-002-1","B1","TrialRevProc",5,58,3,2970.298489,2577.330739,1,1,"A A G G H H B B C D E E E F F N N","A3 G3 G2 H2 H1 B1 B2 C2 D2 E2 E3 E2 F2 F3 N3 N3","A4_A3 A3_G3 G3_G2 G2_H2 H2_H1 H1_B1 B1_B2 B2_C2 C2_D2 D2_E2 E2_E3 E3_E2 E2_F2 F2_F3 F3_N3 Selec",TRUE,"A","N","N",3,TRUE,17,9,8,368.875,320933,288461,321984,32523,92352,321984,285876,283291,"15:29:23",1,14,15.18222645,"L","L",23,"L","M",8,"L","L",12,"L","L",1051,23,14.7054411698527,1,1
2017-02-07,"15:29:23",8,2,"Test_Trials_B_1-002-1","B1","TrialRevProc",6,44,4,3847.359876,2577.013529,11,2,"K J J R U U W W","J4 J3 R3 U3 U2 W4 W4","K2_J4 J4_J3 J3_R3 R3_U3 U3_U2 U2_W4 Selec",TRUE,"K","P","W",4,FALSE,8,5,3,546.857142857143,355073,330139,356124,24985,92352,356124,327554,324969,"15:29:23",11,23,12.26019984,"L","L",15.75,"S","S",4,"S","S",6,"S","S",1051,15.75,12.2601998352392,1,NA
2017-02-07,"15:29:23",9,2,"Test_Trials_B_1-002-1","B1","TrialRevProc",7,56,5,5226.234131,2362.888841,23,4,"W U U R J J J D D C C C D E E E D C B B","U4 U1 R1 J1 J2 J1 D1 D4 C4 C3 C2 D2 E2 E3 E4 D4 C4 B4 B3","W4_U4 U4_U1 U1_R1 R1_J1 J1_J2 J2_J1 J1_D1 D1_D4 D4_C4 C4_C3 C3_C2 C2_D2 D2_E2 E2_E3 E3_E4 E4_D4 D4_C4 C4_B4 B4_B3",FALSE,"W","P","B",3,FALSE,20,10,10,368.736842105263,409494,364731,411044,46313,92352,411044,362363,359993,"15:29:23",23,2,15.002083,"L","L",19.75,"L","L",6,"L","L",8,"L","M",1550,32.75,15.0020831886775,1.65822784810127,NA
2017-02-07,"15:29:23",10,2,"Test_Trials_B_1-002-1","B1","TrialProc",8,59,6,5342.706841,2918.583374,1,1,"A A G L L","A3 G3 L3 L3","A4_A3 A3_G3 G3_L3 Selec",TRUE,"A","L","L",3,TRUE,5,3,2,345,431510,422152,432576,9424,92352,432576,416281,419217,"15:29:23",1,12,6.08276253,"S","S",6,"S","S",2,"S","S",3,"S","S",1066,6,6,1,1
2017-02-07,"15:37:07",11,2,"Test_Trials_B_2-002-1","B2","TrialProc",1,75,7,4896.154542,2211.094605,1,1,"A A G G H H B B C C I I","A3 G3 G2 H2 H1 B1 B2 C2 C3 I2 I2","A4_A3 A3_G3 G3_G2 G2_H2 H2_H1 H1_B1 B1_B2 B2_C2 C2_C3 C3_I2 Selec",TRUE,"A","I","I",1,TRUE,12,6,6,269.363636363636,51987,29939,53038,22099,25489,53038,25503,27721,"15:37:07",1,9,6.264982043,"S","S",12,"S","S",5,"S","S",10,"L","M",1051,12,5.40832691319598,1,1
2017-02-07,"15:37:07",12,2,"Test_Trials_B_2-002-1","B2","TrialProc",2,85,2,3239.434682,2166.05289,9,3,"I C C D E F F N N","C1 C2 D2 E2 F2 F3 N3 N3","I2_C1 C1_C2 C2_D2 D2_E2 E2_F2 F2_F3 F3_N3 Selec",TRUE,"I","N","N",3,TRUE,9,6,3,283,80390,62328,81441,18113,25489,81441,57958,60143,"15:37:07",9,14,9.124143795,"L","M",17,"S","S",5,"S","S",8,"S","S",1051,17,9.61769203083567,1,1
2017-02-07,"15:37:07",13,2,"Test_Trials_B_2-002-1","B2","TrialRevProc",3,85,3,3166.05289,2166.05289,16,2,"P P Z T U W W","P3 Z2 T2 U2 W4 W4","P2_P3 P3_Z2 Z2_T2 T2_U2 U2_W4 Selec",TRUE,"P","W","W",4,TRUE,7,5,2,632.5,109460,89062,110510,20448,25489,110510,86878,84693,"15:37:07",16,23,10.3350133,"L","M",14.25,"S","S",4,"S","S",5,"S","S",1050,14.25,10.3350133042972,1,1
2017-02-07,"15:37:07",14,2,"Test_Trials_B_2-002-1","B2","TrialRevProc",4,55,8,4394.442406,2453.213607,22,3,"Y Y V X X T T T U U R R R R R J J K","Y4 V1 X1 X2 T2 T1 T2 U2 U1 R1 R4 R1 R2 R1 J1 J2 K2","Y2_Y4 Y4_V1 V1_X1 X1_X2 X2_T2 T2_T1 T1_T2 T2_U2 U2_U1 U1_R1 R1_R4 R4_R1 R1_R2 R2_R1 R1_J1 J1_J2 J2_K2",FALSE,"Y","K","K",1,TRUE,18,7,11,423.411764705882,159610,118633,165164,46531,25489,165164,116164,113696,"15:37:07",22,11,13.05038314,"L","L",23.25,"L","M",7,"L","M",12,"L","L",5554,23.25,13.0503831361382,1,1
2017-02-07,"15:37:07",15,2,"Test_Trials_B_2-002-1","B2","TrialProc",5,92,1,5527.572218,2896.154542,11,2,"K J J J J R R R R Q Q H H G G A A","J4 J1 J2 J3 R3 R2 R3 R4 Q4 Q1 H1 H4 G4 G1 A4 A4","K2_J4 J4_J1 J1_J2 J2_J3 J3_R3 R3_R2 R2_R3 R3_R4 R4_Q4 Q4_Q1 Q1_H1 H1_H4 H4_G4 G4_G1 G1_A4 Selec",TRUE,"K","A","A",4,TRUE,17,7,10,248.1875,216382,175371,217433,41062,25489,217433,169568,172470,"15:37:07",11,1,10.11187421,"L","M",18.5,"S","M",7,"L","M",12,"L","L",1051,24,9.61769203083567,1.2972972972973,1.2972972972973
2017-02-07,"15:37:07",16,2,"Test_Trials_B_2-002-1","B2","TrialProc",6,19,6,4495.385681,2770.817084,15,4,"O M M S S R R U U T T T X X X Z P P","M2 M3 S3 S4 R4 R3 U3 U4 T4 T1 T4 X4 X3 X4 Z1 P2 P2","O2_M2 M2_M3 M3_S3 S3_S4 S4_R4 R4_R3 R3_U3 U3_U4 U4_T4 T4_T1 T1_T4 T4_X4 X4_X3 X3_X4 X4_Z1 Z1_P2 Selec",TRUE,"O","P","P",1,TRUE,18,9,9,315.058823529412,271770,228541,272821,43280,25489,272821,222971,225755,"15:37:07",15,16,8.923284149,"S","M",25,"L","L",7,"L","M",11,"L","M",1051,25,8.92328414878737,1,1
2017-02-07,"15:37:07",17,2,"Test_Trials_B_2-002-1","B2","TrialRevProc",7,4,4,3501.543986,2377.986129,22,3,"Y Y V X Z Z T T Q H H G G L L","Y4 V1 X1 Z1 Z2 T2 T1 Q1 H1 H4 G4 G3 L3 L3","Y2_Y4 Y4_V1 V1_X1 X1_Z1 Z1_Z2 Z2_T2 T2_T1 T1_Q1 Q1_H1 H1_H4 H4_G4 G4_G3 G3_L3 Selec",TRUE,"Y","L","L",3,TRUE,15,9,6,278.214285714286,320103,282110,321154,38044,25489,321154,279726,277341,"15:37:07",22,12,8.961724164,"S","M",22.75,"L","M",7,"L","M",13,"L","L",1051,25.75,9.22293337284836,1.13186813186813,1.13186813186813
2017-02-07,"15:37:07",18,2,"Test_Trials_B_2-002-1","B2","TrialRevProc",8,61,5,4495.385681,2239.434682,9,3,"I C C B B H H G G L L","C1 C4 B4 B3 H3 H4 G4 G3 L3 L3","I2_C1 C1_C4 C4_B4 B4_B3 B3_H3 H3_H4 H4_G4 G4_G3 G3_L3 Selec",TRUE,"I","L","L",3,TRUE,11,6,5,187.3,351074,329176,352125,21949,25489,352125,326924,324673,"15:37:07",9,12,5.408326913,"S","S",13.5,"S","S",5,"S","S",9,"S","M",1051,13.5,5.40832691319598,1,1
2017-02-07,"15:49:35",19,2,"Test_Trials_B_3-002-1","B3","TrialProc",1,65,3,5069.7056,2427.2302,22,3,"Y Y V X X T U U R R S S M M O O","Y4 V1 X1 X2 T2 U2 U1 R1 R2 S2 S1 M1 M4 O2 O2","Y2_Y4 Y4_V1 V1_X1 X1_X2 X2_T2 T2_U2 U2_U1 U1_R1 R1_R2 R2_S2 S2_S1 S1_M1 M1_M4 M4_O2 Selec",TRUE,"Y","O","O",1,TRUE,16,9,7,244.733333333333,60924,23399,61975,37576,18502,61975,18529,20964,"15:49:35",22,15,8.280247581,"S","M",25.25,"L","L",8,"L","L",15,"L","L",1051,25.25,8.2802475808396,1,1
2017-02-07,"15:49:35",20,2,"Test_Trials_B_3-002-1","B3","TrialRevProc",2,43,8,4089.223705,2453.972263,16,2,"P P Z T U U R J D D C C I I","P3 Z2 T2 U2 U1 R1 J1 D1 D4 C4 C3 I2 I2","P2_P3 P3_Z2 Z2_T2 T2_U2 U2_U1 U1_R1 R1_J1 J1_D1 D1_D4 D4_C4 C4_C3 C3_I2 Selec",TRUE,"P","I","I",1,TRUE,14,9,5,443.076923076923,107523,71998,108573,35575,18502,108573,69530,67062,"15:49:35",16,9,7.079901129,"S","S",22.5,"L","M",7,"L","M",11,"L","M",1050,28.5,6.75462804305315,1.26666666666667,1.26666666666667
2017-02-07,"15:49:35",21,2,"Test_Trials_B_3-002-1","B3","TrialProc",3,76,4,4770.501286,2429.900691,12,2,"L L G G H H Q Q R R R R J J K K","L1 G1 G2 H2 H3 Q3 Q2 R2 R3 R2 R1 J1 J2 K2 K2","L2_L1 L1_G1 G1_G2 G2_H2 H2_H3 H3_Q3 Q3_Q2 Q2_R2 R2_R3 R3_R2 R2_R1 R1_J1 J1_J2 J2_K2 Selec",TRUE,"L","K","K",1,TRUE,16,7,9,229.6,154838,117564,155889,37325,18502,155889,112676,115128,"15:49:35",12,11,10.0623059,"L","M",20,"S","M",7,"L","M",12,"L","L",1051,25.5,10.5118980208143,1.275,1.275
2017-02-07,"15:49:35",22,2,"Test_Trials_B_3-002-1","B3","TrialProc",4,39,2,5642.573374,2394.694975,9,3,"I C C B B H H G G A A","C1 C4 B4 B3 H3 H4 G4 G1 A4 A4","I2_C1 C1_C4 C4_B4 B4_B3 B3_H3 H3_H4 H4_G4 G4_G1 G1_A4 Selec",TRUE,"I","A","A",4,TRUE,11,6,5,270.7,187310,165479,188361,21882,18502,188361,160675,163077,"15:49:35",9,1,6.264982043,"S","S",12,"S","S",5,"S","S",10,"L","M",1051,12,5.40832691319598,1,1
2017-02-07,"15:49:35",23,2,"Test_Trials_B_3-002-1","B3","TrialRevProc",5,9,6,4388.8882,2660.848893,23,4,"W U U R R S S M M O O","U4 U1 R1 R2 S2 S1 M1 M4 O2 O2","W4_U4 U4_U1 U1_R1 R1_R2 R2_S2 S2_S1 S1_M1 M1_M4 M4_O2 Selec",TRUE,"W","O","O",1,TRUE,11,6,5,380.2,228521,199352,229572,29220,18502,229572,196683,194015,"15:49:35",23,15,7.25,"S","S",17.75,"S","S",5,"S","S",9,"S","M",1051,17.75,7.25,1,1
2017-02-07,"15:49:35",24,2,"Test_Trials_B_3-002-1","B3","TrialRevProc",6,47,1,5527.572218,2909.814912,9,3,"I C C C C B B H Q T T T T X X V Y Y","C1 C4 C3 C4 B4 B3 H3 Q3 T3 T2 T1 T4 X4 X3 V2 Y3 Y3","I2_C1 C1_C4 C4_C3 C3_C4 C4_B4 B4_B3 B3_H3 H3_Q3 Q3_T3 T3_T2 T2_T1 T1_T4 T4_X4 X4_X3 X3_V2 V2_Y3 Selec",TRUE,"I","Y","Y",3,TRUE,18,9,9,244.647058823529,278656,239812,279706,38894,18502,279706,236894,233975,"15:49:35",9,22,10.75,"L","M",22.75,"L","M",8,"L","L",14,"L","L",1050,22.75,10.7616216250154,1,1
2017-02-07,"15:49:35",25,2,"Test_Trials_B_3-002-1","B3","TrialProc",7,52,7,2362.888841,2001.435357,1,1,"A A G G H H Q T T X X V Y Y","A3 G3 G2 H2 H3 Q3 T3 T4 X4 X3 V2 Y3 Y3","A4_A3 A3_G3 G3_G2 G2_H2 H2_H3 H3_Q3 Q3_T3 T3_T4 T4_X4 X4_X3 X3_V2 V2_Y3 Selec",TRUE,"A","Y","Y",3,TRUE,14,8,6,175.384615384615,316948,289279,317999,27720,18502,317999,285243,287261,"15:49:35",1,22,14.80920322,"L","L",21.25,"S","M",7,"L","M",13,"L","L",1051,21.25,14.6308748883995,1,1
2017-02-07,"15:49:35",26,2,"Test_Trials_B_3-002-1","B3","TrialRevProc",8,37,5,4377.986129,2587.192063,14,3,"N N F F E E M S S R R U U W W","N1 F1 F4 E4 E3 M3 S3 S4 R4 R3 U3 U2 W4 W4","N3_N1 N1_F1 F1_F4 F4_E4 E4_E3 E3_M3 M3_S3 S3_S4 S4_R4 R4_R3 R3_U3 U3_U2 U2_W4 Selec",TRUE,"N","W","W",4,TRUE,15,8,7,215.214285714286,362713,325587,363763,37176,18502,363763,322986,320384,"15:49:35",14,23,10.51487042,"L","M",26.25,"L","L",7,"L","M",11,"L","M",1050,26.25,10.5148704224065,1,1
2017-02-07,"15:56:13",27,2,"Test_Trials_B_4-002-1","B4","TrialRevProc",1,2,7,4388.8882,2537.144697,15,4,"O M M S S R R U U W W","M2 M3 S3 S4 R4 R3 U3 U2 W4 W4","O2_M2 M2_M3 M3_S3 S3_S4 S4_R4 R4_R3 R3_U3 U3_U2 U2_W4 Selec",TRUE,"O","W","W",4,TRUE,11,6,5,156.9,49783,22147,50833,27686,17026,50833,19595,17044,"15:56:13",15,23,7.25,"S","S",17.75,"S","S",5,"S","S",9,"S","M",1050,17.75,7.25,1,1
2017-02-07,"15:56:13",28,2,"Test_Trials_B_4-002-1","B4","TrialRevProc",2,22,4,4607.698604,2394.442406,23,4,"W U U R J D D C C I I","U4 U1 R1 J1 D1 D4 C4 C3 I2 I2","W4_U4 U4_U1 U1_R1 R1_J1 J1_D1 D1_D4 D4_C4 C4_C3 C3_I2 Selec",TRUE,"W","I","I",1,TRUE,11,7,4,265,87759,60040,88809,27769,17026,88809,57638,55236,"15:56:13",23,9,11.47006975,"L","L",21.25,"S","M",6,"S","M",9,"S","M",1050,21.25,11.6538620208067,1,1
2017-02-07,"15:56:13",29,2,"Test_Trials_B_4-002-1","B4","TrialProc",3,81,5,2074.413146,2708.437833,12,2,"L L G G H H B B C D E F F N N","L1 G1 G2 H2 H1 B1 B2 C2 D2 E2 F2 F3 N3 N3","L2_L1 L1_G1 G1_G2 G2_H2 H2_H1 H1_B1 B1_B2 B2_C2 C2_D2 D2_E2 E2_F2 F2_F3 F3_N3 Selec",TRUE,"L","N","N",3,TRUE,15,9,6,233.857142857143,126135,98866,127185,27319,17026,127185,93429,96147,"15:56:13",12,14,13.58307771,"L","L",24.5,"L","L",8,"L","L",13,"L","L",1050,24.5,14.0801278403287,1,1
2017-02-07,"15:56:13",30,2,"Test_Trials_B_4-002-1","B4","TrialProc",4,76,2,4885.385565,2429.900691,22,3,"Y Y V X Z P P","Y4 V1 X1 Z1 P2 P2","Y2_Y4 Y4_V1 V1_X1 X1_Z1 Z1_P2 Selec",TRUE,"Y","P","P",1,TRUE,7,5,2,177.333333333333,152086,134141,153136,17995,17026,153136,129270,131706,"15:56:13",22,16,7.267220927,"S","S",10.25,"S","S",3,"S","S",6,"S","S",1050,10.25,7.26722092687432,1,1
2017-02-07,"15:56:13",31,2,"Test_Trials_B_4-002-1","B4","TrialProc",5,9,3,3895.914738,2660.848893,14,3,"N N F F E D C B B H H G G A A","N1 F1 F4 E4 D4 C4 B4 B3 H3 H4 G4 G1 A4 A4","N3_N1 N1_F1 F1_F4 F4_E4 E4_D4 D4_C4 C4_B4 B4_B3 B3_H3 H3_H4 H4_G4 G4_G1 G1_A4 Selec",TRUE,"N","A","A",4,TRUE,15,9,6,190,193664,163377,194715,30338,17026,194715,158040,160708,"15:56:13",14,1,15.18222645,"L","L",23,"L","M",8,"L","L",13,"L","L",1051,23,14.7054411698527,1,1
2017-02-07,"15:56:13",32,2,"Test_Trials_B_4-002-1","B4","TrialProc",6,85,8,3079.06241,2166.05289,15,4,"O M M E E D C C I I","M2 M1 E1 E4 D4 C4 C3 I2 I2","O2_M2 M2_M1 M1_E1 E1_E4 E4_D4 D4_C4 C4_C3 C3_I2 Selec",TRUE,"O","I","I",1,TRUE,10,6,4,199.111111111111,226553,203004,227604,23600,17026,227604,198634,200819,"15:56:13",15,9,5.315072906,"S","S",18,"S","M",5,"S","S",8,"S","S",1051,18,5.70087712549569,1,1
2017-02-07,"15:56:13",33,2,"Test_Trials_B_4-002-1","B4","TrialRevProc",7,93,6,5902.456571,2640.413758,22,3,"Y Y V X X T T Q H H G G A A","Y4 V1 X1 X2 T2 T1 Q1 H1 H4 G4 G1 A4 A4","Y2_Y4 Y4_V1 V1_X1 X1_X2 X2_T2 T2_T1 T1_Q1 Q1_H1 H1_H4 H4_G4 G4_G1 G1_A4 Selec",TRUE,"Y","A","A",4,TRUE,14,8,6,271.153846153846,267931,236009,268982,31973,17026,268982,233358,230706,"15:56:13",22,1,14.80920322,"L","L",21.25,"S","M",7,"L","M",13,"L","L",1051,21.25,14.6308748883995,1,1
2017-02-07,"15:56:13",34,2,"Test_Trials_B_4-002-1","B4","TrialRevProc",8,10,1,5624.268464,2388.293334,11,2,"K J J D D E F F N N","J4 J1 D1 D2 E2 F2 F3 N3 N3","K2_J4 J4_J1 J1_D1 D1_D2 D2_E2 E2_F2 F2_F3 F3_N3 Selec",TRUE,"K","N","N",3,TRUE,10,6,4,374.222222222222,303156,279706,304222,23516,17026,304222,277304,274902,"15:56:13",11,14,5.408326913,"S","S",17.5,"S","S",5,"S","S",8,"S","S",1066,17.5,5.40832691319598,1,1
2017-02-07,"16:02:03",35,2,"Test_Trials_B_5-002-1","B5","TrialProc",1,11,8,5712.950582,2770.501286,15,4,"O M M E E D C B B H H G G A A","M2 M1 E1 E4 D4 C4 B4 B3 H3 H4 G4 G1 A4 A4","O2_M2 M2_M1 M1_E1 E1_E4 E4_D4 D4_C4 C4_B4 B4_B3 B3_H3 H3_H4 H4_G4 G4_G1 G1_A4 Selec",TRUE,"O","A","A",4,TRUE,15,9,6,238.642857142857,57656,24616,58706,33090,19030,58706,19046,21831,"16:02:03",15,1,11.51086443,"L","L",24,"L","L",8,"L","L",13,"L","L",1050,24,11.1018016555873,1,1
2017-02-07,"16:02:03",36,2,"Test_Trials_B_5-002-1","B5","TrialProc",2,46,4,2433.827314,2053.64745,16,2,"P P Z T U U R J J K K","P3 Z2 T2 U2 U1 R1 J1 J2 K2 K2","P2_P3 P3_Z2 Z2_T2 T2_U2 U2_U1 U1_R1 R1_J1 J1_J2 J2_K2 Selec",TRUE,"P","K","K",1,TRUE,11,7,4,378.9,97700,68563,98750,29187,19030,98750,64428,66495,"16:02:03",16,11,11.45098249,"L","L",23,"L","M",6,"S","M",9,"S","M",1050,23,11.4509824905988,1,1
2017-02-07,"16:02:03",37,2,"Test_Trials_B_5-002-1","B5","TrialProc",3,20,1,4394.694975,2970.298489,22,3,"Y Y V X X T U U R J D D E F F N N","Y4 V1 X1 X2 T2 U2 U1 R1 J1 D1 D2 E2 F2 F3 N3 N3","Y2_Y4 Y4_V1 V1_X1 X1_X2 X2_T2 T2_U2 U2_U1 U1_R1 R1_J1 J1_D1 D1_D2 D2_E2 E2_F2 F2_F3 F3_N3 Selec",TRUE,"Y","N","N",3,TRUE,17,11,6,248.9375,145282,107173,146333,38160,19030,146333,101202,104187,"16:02:03",22,14,12.9059095,"L","L",33.75,"L","L",10,"L","L",16,"L","L",1051,33.75,12.9059094991403,1,1
2017-02-07,"16:02:03",38,2,"Test_Trials_B_5-002-1","B5","TrialRevProc",4,38,7,5785.920882,2235.418769,12,2,"L L G G H H Q T T X X V Y Y","L1 G1 G2 H2 H3 Q3 T3 T4 X4 X3 V2 Y3 Y3","L2_L1 L1_G1 G1_G2 G2_H2 H2_H3 H3_Q3 Q3_T3 T3_T4 T4_X4 X4_X3 X3_V2 V2_Y3 Selec",TRUE,"L","Y","Y",3,TRUE,14,8,6,240.615384615385,184675,155255,185726,29471,19030,185726,153004,150752,"16:02:03",12,22,8.961724164,"S","M",22.75,"L","M",7,"L","M",13,"L","L",1051,22.75,9.22293337284836,1,1
2017-02-07,"16:02:03",39,2,"Test_Trials_B_5-002-1","B5","TrialProc",5,74,5,3239.434682,2861.283697,12,2,"L L G G H H Q T T U W W","L1 G1 G2 H2 H3 Q3 T3 T2 U2 W4 W4","L2_L1 L1_G1 G1_G2 G2_H2 H2_H3 H3_Q3 Q3_T3 T3_T2 T2_U2 U2_W4 Selec",TRUE,"L","W","W",4,TRUE,12,7,5,191.454545454545,225770,197267,226821,28554,19030,226821,191530,194399,"16:02:03",12,23,11.50271707,"L","L",24.25,"L","L",6,"S","M",10,"L","M",1051,24.25,11.8769735202197,1,1
2017-02-07,"16:02:03",40,2,"Test_Trials_B_5-002-1","B5","TrialRevProc",6,16,6,5642.573374,2847.359876,16,2,"P P Z T U U R R S S M M O O","P3 Z2 T2 U2 U1 R1 R2 S2 S1 M1 M4 O2 O2","P2_P3 P3_Z2 Z2_T2 T2_U2 U2_U1 U1_R1 R1_R2 R2_S2 S2_S1 S1_M1 M1_M4 M4_O2 Selec",TRUE,"P","O","O",1,TRUE,14,8,6,235.307692307692,268916,235778,269967,33189,19030,269967,232926,230073,"16:02:03",16,15,8.923284149,"S","M",25,"L","L",7,"L","M",11,"L","M",1051,25,8.92328414878737,1,1
2017-02-07,"16:02:03",41,2,"Test_Trials_B_5-002-1","B5","TrialRevProc",7,10,2,2985.598372,2388.293334,14,3,"N N F F E D D J J K K","N1 F1 F4 E4 D4 D3 J3 J2 K2 K2","N3_N1 N1_F1 F1_F4 F4_E4 E4_D4 D4_D3 D3_J3 J3_J2 J2_K2 Selec",TRUE,"N","K","K",1,TRUE,11,6,5,287.8,307342,280424,308393,26969,19030,308393,278022,275621,"16:02:03",14,11,5.408326913,"S","S",17.5,"S","S",5,"S","S",9,"S","M",1051,17.5,5.40832691319598,1,1
2017-02-07,"16:02:03",42,2,"Test_Trials_B_5-002-1","B5","TrialRevProc",8,67,3,4394.694975,2141.597832,23,4,"W U T X X V Y Y","U4 T4 X4 X3 V2 Y3 Y3","W4_U4 U4_T4 T4_X4 X4_X3 X3_V2 V2_Y3 Selec",TRUE,"W","Y","Y",3,TRUE,8,6,2,247.571428571429,333828,315698,334894,18196,19030,334894,313546,311395,"16:02:03",23,22,4,"S","S",14.5,"S","S",5,"S","S",7,"S","S",1066,14.5,4,1,1
2017-02-07,"15:43:29",43,2,"Test_Trials_B_6-002-1","B6","TrialRevProc",1,24,2,5520.968466,2342.706841,15,4,"O M M S S R R J J K K","M2 M3 S3 S4 R4 R1 J1 J2 K2 K2","O2_M2 M2_M3 M3_S3 S3_S4 S4_R4 R4_R1 R1_J1 J1_J2 J2_K2 Selec",TRUE,"O","K","K",1,TRUE,11,6,5,263.3,55319,26033,56370,29337,21304,56370,23681,21329,"15:43:29",15,11,5.024937811,"S","S",18.5,"S","M",5,"S","S",9,"S","M",1051,19,5.02493781056044,1.02702702702703,1.02702702702703
2017-02-07,"15:43:29",44,2,"Test_Trials_B_6-002-1","B6","TrialRevProc",2,56,1,4089.223705,2362.888841,11,2,"K J J J J R R Q Q H H G G L L","J4 J1 J2 J3 R3 R4 Q4 Q1 H1 H4 G4 G3 L3 L3","K2_J4 J4_J1 J1_J2 J2_J3 J3_R3 R3_R4 R4_Q4 Q4_Q1 Q1_H1 H1_H4 H4_G4 G4_G3 G3_L3 Selec",TRUE,"K","L","L",3,TRUE,15,7,8,163.214285714286,104152,66644,105203,37559,21304,105203,64276,61907,"15:43:29",11,12,10.0623059,"L","M",20,"S","M",7,"L","M",12,"L","L",1051,25.5,10.5118980208143,1.275,1.275
2017-02-07,"15:43:29",45,2,"Test_Trials_B_6-002-1","B6","TrialProc",3,77,5,2861.283697,2895.914738,12,2,"L L G G H H B B C C I I","L1 G1 G2 H2 H1 B1 B2 C2 C3 I2 I2","L2_L1 L1_G1 G1_G2 G2_H2 H2_H1 H1_B1 B1_B2 B2_C2 C2_C3 C3_I2 Selec",TRUE,"L","I","I",1,TRUE,12,6,6,193.090909090909,137175,115110,138226,22116,21304,138226,109306,112208,"15:43:29",12,9,5.408326913,"S","S",13.5,"S","S",5,"S","S",10,"L","M",1051,13.5,5.40832691319598,1,1
2017-02-07,"15:43:29",46,2,"Test_Trials_B_6-002-1","B6","TrialProc",4,23,6,2426.046381,2241.141116,9,3,"I C C D D J R U U T T T T T U W W","C1 C2 D2 D3 J3 R3 U3 U4 T4 T1 T4 T1 T2 U2 W4 W4","I2_C1 C1_C2 C2_D2 D2_D3 D3_J3 J3_R3 R3_U3 U3_U4 U4_T4 T4_T1 T1_T4 T4_T1 T1_T2 T2_U2 U2_W4 Selec",TRUE,"I","W","W",4,TRUE,17,9,8,387.125,189177,145597,190228,43631,21304,190228,141095,143346,"15:43:29",9,23,11.47006975,"L","L",21.25,"S","M",6,"S","M",10,"L","M",1051,30.25,11.6538620208067,1.42352941176471,1.42352941176471
2017-02-07,"15:43:29",47,2,"Test_Trials_B_6-002-1","B6","TrialRevProc",5,20,7,3141.597832,2970.298489,14,3,"N N F F E E M M O O","N1 F1 F4 E4 E3 M3 M4 O2 O2","N3_N1 N1_F1 F1_F4 F4_E4 E4_E3 E3_M3 M3_M4 M4_O2 Selec",TRUE,"N","O","O",1,TRUE,10,5,5,227.333333333333,223701,198633,224751,25118,21304,224751,195648,192663,"15:43:29",14,15,5.385164807,"S","S",16,"S","S",4,"S","S",8,"S","S",1050,16,5.3851648071345,1,1
2017-02-07,"15:43:29",48,2,"Test_Trials_B_6-002-1","B6","TrialRevProc",6,71,3,3723.092694,2150.523089,11,2,"K J J R U U T X X V Y Y","J4 J3 R3 U3 U4 T4 X4 X3 V2 Y3 Y3","K2_J4 J4_J3 J3_R3 R3_U3 U3_U4 U4_T4 T4_X4 X4_X3 X3_V2 V2_Y3 Selec",TRUE,"K","Y","Y",3,TRUE,12,8,4,245.090909090909,261026,232240,262077,28837,21304,262077,230071,227903,"15:43:29",11,22,13.05038314,"L","L",23.25,"L","M",7,"L","M",11,"L","M",1051,23.25,13.0503831361382,1,1
2017-02-07,"15:43:29",49,2,"Test_Trials_B_6-002-1","B6","TrialProc",7,65,8,4515.92406,2427.2302,14,3,"N N F F E D C C I I","N1 F1 F4 E4 D4 C4 C3 I2 I2","N3_N1 N1_F1 F1_F4 F4_E4 E4_D4 D4_C4 C4_C3 C3_I2 Selec",TRUE,"N","I","I",1,TRUE,10,6,4,277.888888888889,293264,270682,294315,22633,21304,294315,265812,268247,"15:43:29",14,9,9.124143795,"L","M",17,"S","S",5,"S","S",8,"S","S",1051,17,9.61769203083567,1,1
2017-02-07,"15:43:29",50,2,"Test_Trials_B_6-002-1","B6","TrialProc",8,70,4,4607.698604,2287.569423,1,1,"A A G G H H Q T T X Z P P","A3 G3 G2 H2 H3 Q3 T3 T4 X4 Z1 P2 P2","A4_A3 A3_G3 G3_G2 G2_H2 H2_H3 H3_Q3 Q3_T3 T3_T4 T4_X4 X4_Z1 Z1_P2 Selec",TRUE,"A","P","P",1,TRUE,13,8,5,316.333333333333,332925,303455,333975,29520,21304,333975,298852,301153,"15:43:29",1,16,8.284020763,"S","M",21,"S","M",6,"S","M",10,"L","M",1050,21,8.25378700960959,1,1
2017-02-07,"13:11:09",51,3,"Explore-003-1","1",NA,NA,NA,NA,NA,NA,NA,NA,"U R R S S M M O M M E E D D J J K J J R R R U U W U T T Q Q R R R Q Q T T X X V Y Y V X Z P P Z X T T Q H H G G L L G A A G G H H B B C C I C C D E E M M O M M S S R R J J K J J R R Q Q H H G G L L G A A G G H H B B C D E F F N N F F E E M M O M M S S R R U U W U T T T X X V Y Y V X Z P P Z X T T Q Q Q H H G G L L G A A G G H H","R1 R2 S2 S1 M1 M4 O2 M2 M1 E1 E4 D4 D3 J3 J2 K2 J4 J3 R3 R2 R3 U3 U2 W4 U4 T4 T1 Q1 Q2 R2 R1 R4 Q4 Q3 T3 T4 X4 X3 V2 Y3 Y4 V1 X1 Z1 P2 P3 Z2 X2 T2 T1 Q1 H1 H4 G4 G3 L2 L1 G1 A4 A3 G3 G2 H2 H1 B1 B2 C2 C3 I2 C1 C2 D2 E2 E3 M3 M4 O2 M2 M3 S3 S4 R4 R1 J1 J2 K2 J4 J3 R3 R4 Q4 Q1 H1 H4 G4 G3 L2 L1 G1 A4 A3 G3 G2 H2 H1 B1 B2 C2 D2 E2 F2 F3 N3 N1 F1 F4 E4 E3 M3 M4 O2 M2 M3 S3 S4 R4 R3 U3 U2 W4 U4 T4 T1 T4 X4 X3 V2 Y3 Y4 V1 X1 Z1 P2 P3 Z2 X2 T2 T1 Q1 Q2 Q1 H1 H4 G4 G3 L2 L1 G1 A4 A3 G3 G2 H2 H1 NA","U1_R1 R1_R2 R2_S2 S2_S1 S1_M1 M1_M4 M4_O2 O2_M2 M2_M1 M1_E1 E1_E4 E4_D4 D4_D3 D3_J3 J3_J2 J2_K2 K2_J4 J4_J3 J3_R3 R3_R2 R2_R3 R3_U3 U3_U2 U2_W4 W4_U4 U4_T4 T4_T1 T1_Q1 Q1_Q2 Q2_R2 R2_R1 R1_R4 R4_Q4 Q4_Q3 Q3_T3 T3_T4 T4_X4 X4_X3 X3_V2 V2_Y3 Y2_Y4 Y4_V1 V1_X1 X1_Z1 Z1_P2 P2_P3 P3_Z2 Z2_X2 X2_T2 T2_T1 T1_Q1 Q1_H1 H1_H4 H4_G4 G4_G3 G3_L2 L2_L1 L1_G1 G1_A4 A4_A3 A3_G3 G3_G2 G2_H2 H2_H1 H1_B1 B1_B2 B2_C2 C2_C3 C3_I2 I2_C1 C1_C2 C2_D2 D2_E2 E2_E3 E3_M3 M3_M4 M4_O2 O2_M2 M2_M3 M3_S3 S3_S4 S4_R4 R4_R1 R1_J1 J1_J2 J2_K2 K2_J4 J4_J3 J3_R3 R3_R4 R4_Q4 Q4_Q1 Q1_H1 H1_H4 H4_G4 G4_G3 G3_L2 L2_L1 L1_G1 G1_A4 A4_A3 A3_G3 G3_G2 G2_H2 H2_H1 H1_B1 B1_B2 B2_C2 C2_D2 D2_E2 E2_F2 F2_F3 F3_N3 N3_N1 N1_F1 F1_F4 F4_E4 E4_E3 E3_M3 M3_M4 M4_O2 O2_M2 M2_M3 M3_S3 S3_S4 S4_R4 R4_R3 R3_U3 U3_U2 U2_W4 W4_U4 U4_T4 T4_T1 T1_T4 T4_X4 X4_X3 X3_V2 V2_Y3 Y2_Y4 Y4_V1 V1_X1 X1_Z1 Z1_P2 P2_P3 P3_Z2 Z2_X2 X2_T2 T2_T1 T1_Q1 Q1_Q2 Q2_Q1 Q1_H1 H1_H4 H4_G4 G4_G3 G3_L2 L2_L1 L1_G1 G1_A4 A4_A3 A3_G3 G3_G2 G2_H2 H2_H1",NA,NA,NA,"H",2,NA,165,95,70,384.073170731707,NA,29478,509638,480160,29465,NA,NA,NA,"13:11:09",NA,NA,NA,NA,NA,NA,NA,NA,NA,NA,NA,NA,NA,NA,NA,314,10.5118980208143,NA,NA
2017-02-07,"13:20:06",52,3,"Explore-003-2","2",NA,NA,NA,NA,NA,NA,NA,NA,"E D D J R U U T T T X X V V X Z P P Z X T T Q H H G G L L G A A G G H H B B C C I C C D D J J K J J D D E E M M O M M E E F F N N F F E E M S S R Q Q Q Q T T U W U U R R S S M M O M M E E F F N N F F E D D J J K J J D D C C I C C B B H H G G A A G L L G G H H Q T T X Z P P Z X X V Y Y V X X X X T U W U T T Q Q R R J D D E F F N N F","D4 D3 J3 R3 U3 U4 T4 T1 T4 X4 X3 V2 V1 X1 Z1 P2 P3 Z2 X2 T2 T1 Q1 H1 H4 G4 G3 L2 L1 G1 A4 A3 G3 G2 H2 H1 B1 B2 C2 C3 I2 C1 C2 D2 D3 J3 J2 K2 J4 J1 D1 D2 E2 E3 M3 M4 O2 M2 M1 E1 E2 F2 F3 N3 N1 F1 F4 E4 E3 M3 S3 S4 R4 Q4 Q1 Q2 Q3 T3 T2 U2 W4 U4 U1 R1 R2 S2 S1 M1 M4 O2 M2 M1 E1 E2 F2 F3 N3 N1 F1 F4 E4 D4 D3 J3 J2 K2 J4 J1 D1 D4 C4 C3 I2 C1 C4 B4 B3 H3 H4 G4 G1 A4 A3 G3 L2 L1 G1 G2 H2 H3 Q3 T3 T4 X4 Z1 P2 P3 Z2 X2 X3 V2 Y3 Y4 V1 X1 X2 X3 X2 T2 U2 W4 U4 T4 T1 Q1 Q2 R2 R1 J1 D1 D2 E2 F2 F3 N3 N1 F1 NA","E4_D4 D4_D3 D3_J3 J3_R3 R3_U3 U3_U4 U4_T4 T4_T1 T1_T4 T4_X4 X4_X3 X3_V2 V2_V1 V1_X1 X1_Z1 Z1_P2 P2_P3 P3_Z2 Z2_X2 X2_T2 T2_T1 T1_Q1 Q1_H1 H1_H4 H4_G4 G4_G3 G3_L2 L2_L1 L1_G1 G1_A4 A4_A3 A3_G3 G3_G2 G2_H2 H2_H1 H1_B1 B1_B2 B2_C2 C2_C3 C3_I2 I2_C1 C1_C2 C2_D2 D2_D3 D3_J3 J3_J2 J2_K2 K2_J4 J4_J1 J1_D1 D1_D2 D2_E2 E2_E3 E3_M3 M3_M4 M4_O2 O2_M2 M2_M1 M1_E1 E1_E2 E2_F2 F2_F3 F3_N3 N3_N1 N1_F1 F1_F4 F4_E4 E4_E3 E3_M3 M3_S3 S3_S4 S4_R4 R4_Q4 Q4_Q1 Q1_Q2 Q2_Q3 Q3_T3 T3_T2 T2_U2 U2_W4 W4_U4 U4_U1 U1_R1 R1_R2 R2_S2 S2_S1 S1_M1 M1_M4 M4_O2 O2_M2 M2_M1 M1_E1 E1_E2 E2_F2 F2_F3 F3_N3 N3_N1 N1_F1 F1_F4 F4_E4 E4_D4 D4_D3 D3_J3 J3_J2 J2_K2 K2_J4 J4_J1 J1_D1 D1_D4 D4_C4 C4_C3 C3_I2 I2_C1 C1_C4 C4_B4 B4_B3 B3_H3 H3_H4 H4_G4 G4_G1 G1_A4 A4_A3 A3_G3 G3_L2 L2_L1 L1_G1 G1_G2 G2_H2 H2_H3 H3_Q3 Q3_T3 T3_T4 T4_X4 X4_Z1 Z1_P2 P2_P3 P3_Z2 Z2_X2 X2_X3 X3_V2 V2_Y3 Y2_Y4 Y4_V1 V1_X1 X1_X2 X2_X3 X3_X2 X2_T2 T2_U2 U2_W4 W4_U4 U4_T4 T4_T1 T1_Q1 Q1_Q2 Q2_R2 R2_R1 R1_J1 J1_D1 D1_D2 D2_E2 E2_F2 F2_F3 F3_N3 N3_N1 N1_F1",NA,NA,NA,"F",2,NA,167,97,70,389.680722891566,NA,56180,537507,481327,56164,NA,NA,NA,"13:20:06",NA,NA,NA,NA,NA,NA,NA,NA,NA,NA,NA,NA,NA,NA,NA,321.5,3,NA,NA
2017-02-07,"13:42:04",53,3,"Test_Trials_C_1-003-1","C1","TrialProc",1,75,4,2402.825646,2211.094605,1,1,"A A G G H H Q Q R S S M M O O","A3 G3 G2 H2 H3 Q3 Q2 R2 S2 S1 M1 M4 O2 O2","A4_A3 A3_G3 G3_G2 G2_H2 H2_H3 H3_Q3 Q3_Q2 Q2_R2 R2_S2 S2_S1 S1_M1 M1_M4 M4_O2 Selec",TRUE,"A","O","O",1,TRUE,15,8,7,206.428571428571,85625,51986,86676,33690,47534,86676,47549,49768,"13:42:04",1,15,11.51086443,"L","L",24,"L","L",8,"L","L",14,"L","L",1051,26,11.1018016555873,1.08333333333333,1.08333333333333
2017-02-07,"13:42:04",54,3,"Test_Trials_C_1-003-1","C1","TrialRevProc",2,28,1,3628.061645,2990.735832,1,1,"A A G G H H Q T T X Z P P","A3 G3 G2 H2 H3 Q3 T3 T4 X4 Z1 P2 P2","A4_A3 A3_G3 G3_G2 G2_H2 H2_H3 H3_Q3 Q3_T3 T3_T4 T4_X4 X4_Z1 Z1_P2 Selec",TRUE,"A","P","P",1,TRUE,13,8,5,328.583333333333,124335,95098,125386,29288,47534,125386,92096,89094,"13:42:04",1,16,8.284020763,"S","M",21,"S","M",6,"S","M",10,"L","M",1051,21,8.25378700960959,1,1
2017-02-07,"13:42:04",55,3,"Test_Trials_C_1-003-1","C1","TrialRevProc",3,38,3,4967.951443,2235.418769,11,2,"K J J D D E F F N N","J4 J1 D1 D2 E2 F2 F3 N3 N3","K2_J4 J4_J1 J1_D1 D1_D2 D2_E2 E2_F2 F2_F3 F3_N3 Selec",TRUE,"K","N","N",3,TRUE,10,6,4,477.444444444444,157908,133524,158958,24434,47534,158958,131273,129023,"13:42:04",11,14,5.408326913,"S","S",17.5,"S","S",5,"S","S",8,"S","S",1050,17.5,5.40832691319598,1,1
2017-02-07,"13:42:04",56,3,"Test_Trials_C_1-003-1","C1","TrialRevProc",4,23,7,5226.234131,2241.141116,11,2,"K J J R U U W W","J4 J3 R3 U3 U2 W4 W4","K2_J4 J4_J3 J3_R3 R3_U3 U3_U2 U2_W4 Selec",TRUE,"K","W","W",4,TRUE,8,5,3,439.714285714286,192598,168448,193649,24201,47534,193649,166197,163945,"13:42:04",11,23,12.26019984,"L","L",15.75,"S","S",4,"S","S",6,"S","S",1051,15.75,12.2601998352392,1,1
2017-02-07,"13:42:04",57,3,"Test_Trials_C_1-003-1","C1","TrialRevProc",5,42,5,5069.7056,2426.046381,23,4,"W U T X X V Y Y","U4 T4 X4 X3 V2 Y3 Y3","W4_U4 U4_T4 T4_X4 X4_X3 X3_V2 V2_Y3 Selec",TRUE,"W","Y","Y",3,TRUE,8,6,2,460.285714285714,223386,203756,224436,19680,47534,224436,201321,198886,"13:42:04",23,22,4,"S","S",14.5,"S","S",5,"S","S",7,"S","S",1050,14.5,4,1,1
2017-02-07,"13:42:04",58,3,"Test_Trials_C_1-003-1","C1","TrialProc",6,53,8,4577.013529,2339.014601,9,3,"I C C B B H Q T T X Z P P","C1 C4 B4 B3 H3 Q3 T3 T4 X4 Z1 P2 P2","I2_C1 C1_C4 C4_B4 B4_B3 B3_H3 H3_Q3 Q3_T3 T3_T4 T4_X4 X4_Z1 Z1_P2 Selec",TRUE,"I","P","P",1,TRUE,13,9,4,233.083333333333,263730,234226,264780,29554,47534,264780,229523,231875,"13:42:04",9,16,7.079901129,"S","S",22.5,"L","M",7,"L","M",11,"L","M",1050,22.5,6.75462804305315,1,1
2017-02-07,"13:42:04",59,3,"Test_Trials_C_1-003-1","C1","TrialProc",7,28,2,5520.968466,2990.735832,15,4,"O M M E E D C C I I","M2 M1 E1 E4 D4 C4 C3 I2 I2","O2_M2 M2_M1 M1_E1 E1_E4 E4_D4 D4_C4 C4_C3 C3_I2 Selec",TRUE,"O","I","I",1,TRUE,10,6,4,501.888888888889,301622,275371,302673,26302,47534,302673,269367,272369,"13:42:04",15,9,5.315072906,"S","S",18,"S","M",5,"S","S",8,"S","S",1051,18,5.70087712549569,1,1
2017-02-07,"13:42:04",60,3,"Test_Trials_C_1-003-1","C1","TrialProc",8,81,6,4339.014601,2708.437833,14,3,"N N F F E D C B B H H G G A A","N1 F1 F4 E4 D4 C4 B4 B3 H3 H4 G4 G1 A4 A4","N3_N1 N1_F1 F1_F4 F4_E4 E4_D4 D4_C4 C4_B4 B4_B3 B3_H3 H3_H4 H4_G4 G4_G1 G1_A4 Selec",TRUE,"N","A","A",4,TRUE,15,9,6,275.285714285714,345085,313647,346136,31489,47534,346136,308210,310929,"13:42:04",14,1,15.18222645,"L","L",23,"L","M",8,"L","L",13,"L","L",1051,23,14.7054411698527,1,1
2017-02-07,"13:55:37",61,3,"Test_Trials_C_2-003-1","C2","TrialRevProc",1,30,6,5676.939823,2089.223705,9,3,"I C C C C B B H H G G A A","C1 C2 C3 C4 B4 B3 H3 H4 G4 G1 A4 A4","I2_C1 C1_C2 C2_C3 C3_C4 C4_B4 B4_B3 B3_H3 H3_H4 H4_G4 G4_G1 G1_A4 Selec",TRUE,"I","A","A",4,TRUE,13,6,7,362.666666666667,72118,43748,73168,28420,39519,73168,41647,39546,"13:55:37",9,1,6.264982043,"S","S",12,"S","S",5,"S","S",10,"L","M",1050,12,5.40832691319598,1,1
2017-02-07,"13:55:37",62,3,"Test_Trials_C_2-003-1","C2","TrialProc",2,5,8,4896.154542,2785.920882,16,2,"P P Z T U U R R S S M E E F F N N","P3 Z2 T2 U2 U1 R1 R2 S2 S1 M1 E1 E2 F2 F3 N3 N3","P2_P3 P3_Z2 Z2_T2 T2_U2 U2_U1 U1_R1 R1_R2 R2_S2 S2_S1 S1_M1 M1_E1 E1_E2 E2_F2 F2_F3 F3_N3 Selec",TRUE,"P","N","N",3,TRUE,17,10,7,292.0625,123853,84459,124904,39445,39519,124904,78856,81658,"13:55:37",16,14,14.25219281,"L","L",33.5,"L","L",9,"L","L",13,"L","L",1051,33.5,14.2521928137392,1,1
2017-02-07,"13:55:37",63,3,"Test_Trials_C_2-003-1","C2","TrialProc",3,4,7,5662.258108,2377.986129,22,3,"Y Y V X X T U W W","Y4 V1 X1 X2 T2 U2 W4 W4","Y2_Y4 Y4_V1 V1_X1 X1_X2 X2_T2 T2_U2 U2_W4 Selec",TRUE,"Y","W","W",4,TRUE,9,6,3,244.75,156208,134594,157259,21665,39519,157259,129824,132209,"13:55:37",22,23,4,"S","S",14.5,"S","S",5,"S","S",8,"S","S",1051,14.5,4,1,1
2017-02-07,"13:55:37",64,3,"Test_Trials_C_2-003-1","C2","TrialRevProc",4,54,2,4429.900691,2069.7056,16,2,"P P Z T T Q H B B C C I I","P3 Z2 T2 T1 Q1 H1 B1 B2 C2 C3 I2 I2","P2_P3 P3_Z2 Z2_T2 T2_T1 T1_Q1 Q1_H1 H1_B1 B1_B2 B2_C2 C2_C3 C3_I2 Selec",TRUE,"P","I","I",1,TRUE,13,8,5,366.916666666667,197687,167099,198737,30638,39519,198737,165014,162930,"13:55:37",16,9,7.079901129,"S","S",22.5,"L","M",7,"L","M",11,"L","M",1050,22.5,6.75462804305315,1,1
2017-02-07,"13:55:37",65,3,"Test_Trials_C_2-003-1","C2","TrialRevProc",5,30,5,5611.124262,2089.223705,15,4,"O M M E E D C B B H H G G L L","M2 M1 E1 E4 D4 C4 B4 B3 H3 H4 G4 G3 L3 L3","O2_M2 M2_M1 M1_E1 E1_E4 E4_D4 D4_C4 C4_B4 B4_B3 B3_H3 H3_H4 H4_G4 G4_G3 G3_L3 Selec",TRUE,"O","L","L",3,TRUE,15,9,6,204,240366,207393,241416,33023,39519,241416,205292,203190,"13:55:37",15,12,8.514693183,"S","M",25.5,"L","L",8,"L","L",13,"L","L",1050,25.5,9.01387818865997,1,1
2017-02-07,"13:55:37",66,3,"Test_Trials_C_2-003-1","C2","TrialRevProc",6,11,1,2861.283697,2770.501286,9,3,"I C C B B H Q Q R R J J K K","C1 C4 B4 B3 H3 Q3 Q2 R2 R1 J1 J2 K2 K2","I2_C1 C1_C4 C4_B4 B4_B3 B3_H3 H3_Q3 Q3_Q2 Q2_R2 R2_R1 R1_J1 J1_J2 J2_K2 Selec",TRUE,"I","K","K",1,TRUE,14,8,6,206.153846153846,286080,252607,287131,33524,39519,287131,249822,247037,"13:55:37",9,11,4.74341649,"S","S",12.5,"S","S",4,"S","S",8,"S","S",1051,25.5,5.22015325445528,2.04,2.04
2017-02-07,"13:55:37",67,3,"Test_Trials_C_2-003-1","C2","TrialProc",7,36,3,2579.470897,2436.662131,15,4,"O M M S S R Q Q T T X X V Y Y","M2 M3 S3 S4 R4 Q4 Q3 T3 T4 X4 X3 V2 Y3 Y3","O2_M2 M2_M3 M3_S3 S3_S4 S4_R4 R4_Q4 Q4_Q3 Q3_T3 T3_T4 T4_X4 X4_X3 X3_V2 V2_Y3 Selec",TRUE,"O","Y","Y",3,TRUE,15,9,6,361,330911,294919,331961,36042,39519,331961,290016,292468,"13:55:37",15,22,8.280247581,"S","M",25.25,"L","L",8,"L","L",14,"L","L",1050,25.25,8.2802475808396,1,1
2017-02-07,"13:55:37",68,3,"Test_Trials_C_2-003-1","C2","TrialProc",8,77,4,3074.75084,2895.914738,23,4,"W U T X Z P P Z T T Q H H G G L","U4 T4 X4 Z1 P2 P3 Z2 T2 T1 Q1 H1 H4 G4 G3 L3","W4_U4 U4_T4 T4_X4 X4_Z1 Z1_P2 P2_P3 P3_Z2 Z2_T2 T2_T1 T1_Q1 Q1_H1 H1_H4 H4_G4 G4_G3 G3_L3",FALSE,"W","L","L",3,TRUE,16,11,5,239.4,381995,340567,386148,45581,39519,386148,334563,337466,"13:55:37",23,12,11.50271707,"L","L",24.25,"L","L",6,"S","M",9,"S","M",4153,36.75,11.8769735202197,1.51546391752577,1.51546391752577
2017-02-07,"13:34:48",69,3,"Test_Trials_C_3-003-1","C3","TrialProc",1,93,1,5226.234131,2640.413758,16,2,"P P Z T U U R J J K K","P3 Z2 T2 U2 U1 R1 J1 J2 K2 K2","P2_P3 P3_Z2 Z2_T2 T2_U2 U2_U1 U1_R1 R1_J1 J1_J2 J2_K2 Selec",TRUE,"P","K","K",1,TRUE,11,7,4,497.1,64121,33733,65172,30439,28404,65172,28430,31082,"13:34:48",16,11,11.45098249,"L","L",23,"L","M",6,"S","M",9,"S","M",1051,23,11.4509824905988,1,1
2017-02-07,"13:34:48",70,3,"Test_Trials_C_3-003-1","C3","TrialProc",2,3,8,5287.569423,2642.573374,14,3,"N N F F E D C B B H H G G L L","N1 F1 F4 E4 D4 C4 B4 B3 H3 H4 G4 G3 L3 L3","N3_N1 N1_F1 F1_F4 F4_E4 E4_D4 D4_C4 C4_B4 B4_B3 B3_H3 H3_H4 H4_G4 G4_G3 G3_L3 Selec",TRUE,"N","L","L",3,TRUE,15,9,6,386.928571428571,109585,75729,110636,33907,28404,110636,70410,73077,"13:34:48",14,12,13.58307771,"L","L",24.5,"L","L",8,"L","L",13,"L","L",1051,24.5,14.0801278403287,1,1
2017-02-07,"13:34:48",71,3,"Test_Trials_C_3-003-1","C3","TrialRevProc",3,86,4,5611.124262,2527.572218,16,2,"P P Z T T Q H H G G A A","P3 Z2 T2 T1 Q1 H1 H4 G4 G1 A4 A4","P2_P3 P3_Z2 Z2_T2 T2_T1 T1_Q1 Q1_H1 H1_H4 H4_G4 G4_G1 G1_A4 Selec",TRUE,"P","A","A",4,TRUE,12,7,5,372.636363636364,149863,121010,150913,28903,28404,150913,118475,115939,"13:34:48",16,1,8.284020763,"S","M",21,"S","M",6,"S","M",10,"L","M",1050,21,8.25378700960959,1,1
2017-02-07,"13:34:48",72,3,"Test_Trials_C_3-003-1","C3","TrialRevProc",4,30,5,2748.71133,2089.223705,11,2,"K J J D D C C I I","J4 J1 D1 D4 C4 C3 I2 I2","K2_J4 J4_J1 J1_D1 D1_D4 D4_C4 C4_C3 C3_I2 Selec",TRUE,"K","I","I",1,TRUE,9,5,4,464.125,183852,160737,184903,23166,28404,184903,158635,156534,"13:34:48",11,9,4.74341649,"S","S",12.5,"S","S",4,"S","S",7,"S","S",1051,12.5,5.22015325445528,1,1
2017-02-07,"13:34:48",73,3,"Test_Trials_C_3-003-1","C3","TrialProc",5,2,3,4354.997762,2537.144697,1,1,"A A G G H H B B C D D J J K K","A3 G3 G2 H2 H1 B1 B2 C2 D2 D3 J3 J2 K2 K2","A4_A3 A3_G3 G3_G2 G2_H2 H2_H1 H1_B1 B1_B2 B2_C2 C2_D2 D2_D3 D3_J3 J3_J2 J2_K2 Selec",TRUE,"A","K","K",1,TRUE,15,8,7,307.785714285714,223363,192775,224413,30638,28404,224413,187672,190223,"13:34:48",1,11,10.11187421,"L","M",18.5,"S","M",7,"L","M",12,"L","L",1050,18.5,9.61769203083567,1,1
2017-02-07,"13:34:48",74,3,"Test_Trials_C_3-003-1","C3","TrialRevProc",6,83,7,4207.34613,2859.382159,22,3,"Y Y V X X T U U R R S S M M O O","Y4 V1 X1 X2 T2 U2 U1 R1 R2 S2 S1 M1 M4 O2 O2","Y2_Y4 Y4_V1 V1_X1 X1_X2 X2_T2 T2_U2 U2_U1 U1_R1 R1_R2 R2_S2 S2_S1 S1_M1 M1_M4 M4_O2 Selec",TRUE,"Y","O","O",1,TRUE,16,9,7,257.466666666667,272129,234520,273180,37660,28404,273180,231652,228783,"13:34:48",22,15,8.280247581,"S","M",25.25,"L","L",8,"L","L",15,"L","L",1051,25.25,8.2802475808396,1,1
2017-02-07,"13:34:48",75,3,"Test_Trials_C_3-003-1","C3","TrialProc",7,48,6,5211.094605,2079.06241,14,3,"N N F F E E M S S R Q Q T T X X V Y Y","N1 F1 F4 E4 E3 M3 S3 S4 R4 Q4 Q3 T3 T4 X4 X3 V2 Y3 Y3","N3_N1 N1_F1 F1_F4 F4_E4 E4_E3 E3_M3 M3_S3 S3_S4 S4_R4 R4_Q4 Q4_Q3 Q3_T3 T3_T4 T4_X4 X4_X3 X3_V2 V2_Y3 Selec",TRUE,"N","Y","Y",3,TRUE,19,11,8,259,325382,281569,326433,43864,28404,326433,277399,279484,"13:34:48",14,22,12.9059095,"L","L",33.75,"L","L",10,"L","L",16,"L","L",1051,33.75,12.9059094991403,1,1
2017-02-07,"13:34:48",76,3,"Test_Trials_C_3-003-1","C3","TrialRevProc",8,1,2,5642.573374,2226.234131,9,3,"I C C B B H Q T T X X V Y Y","C1 C4 B4 B3 H3 Q3 T3 T4 X4 X3 V2 Y3 Y3","I2_C1 C1_C4 C4_B4 B4_B3 B3_H3 H3_Q3 Q3_T3 T3_T4 T4_X4 X4_X3 X3_V2 V2_Y3 Selec",TRUE,"I","Y","Y",3,TRUE,14,9,5,354.384615384615,367861,336406,368912,31506,28404,368912,333888,331653,"13:34:48",9,22,10.75,"L","M",22.75,"L","M",8,"L","L",14,"L","L",1051,22.75,10.7616216250154,1,1
2017-02-07,"13:48:41",77,3,"Test_Trials_C_4-003-1","C4","TrialProc",1,29,2,3079.06241,2016.320066,1,1,"A A G L L","A3 G3 L3 L3","A4_A3 A3_G3 G3_L3 Selec",TRUE,"A","L","L",3,TRUE,5,3,2,258.25,33489,24432,34539,9107,20347,34539,20363,22398,"13:48:41",1,12,6.08276253,"S","S",6,"S","S",2,"S","S",3,"S","S",1050,6,6,1,1
2017-02-07,"13:48:41",78,3,"Test_Trials_C_4-003-1","C4","TrialRevProc",2,52,1,4918.583374,2001.435357,23,4,"W U T T Q Q R R J J K K","U4 T4 T1 Q1 Q2 R2 R1 J1 J2 K2 K2","W4_U4 U4_T4 T4_T1 T1_Q1 Q1_Q2 Q2_R2 R2_R1 R1_J1 J1_J2 J2_K2 Selec",TRUE,"W","K","K",1,TRUE,12,7,5,441.545454545455,75684,41677,76735,34058,20347,76735,39659,37641,"13:48:41",23,11,12.26019984,"L","L",15.75,"S","S",4,"S","S",6,"S","S",1051,24.75,12.2601998352392,1.57142857142857,1.57142857142857
2017-02-07,"13:48:41",79,3,"Test_Trials_C_4-003-1","C4","TrialRevProc",3,88,4,2968.098716,2520.968466,22,3,"Y Y V X X T T Q H B B C C I I","Y4 V1 X1 X2 T2 T1 Q1 H1 B1 B2 C2 C3 I2 I2","Y2_Y4 Y4_V1 V1_X1 X1_X2 X2_T2 T2_T1 T1_Q1 Q1_H1 H1_B1 B1_B2 B2_C2 C2_C3 C3_I2 Selec",TRUE,"Y","I","I",1,TRUE,15,9,6,373.5,121749,86741,122799,35058,20347,122799,84206,81671,"13:48:41",22,9,10.75,"L","M",22.75,"L","M",8,"L","L",14,"L","L",1050,22.75,10.7616216250154,1,1
2017-02-07,"13:48:41",80,3,"Test_Trials_C_4-003-1","C4","TrialProc",4,15,3,3150.523089,2662.258108,9,3,"I C C D E E M M O O","C1 C2 D2 E2 E3 M3 M4 O2 O2","I2_C1 C1_C2 C2_D2 D2_E2 E2_E3 E3_M3 M3_M4 M4_O2 Selec",TRUE,"I","O","O",1,TRUE,10,6,4,313.777777777778,155255,131122,156305,24183,20347,156305,125785,128453,"13:48:41",9,15,5.315072906,"S","S",18,"S","M",5,"S","S",9,"S","M",1050,18,5.70087712549569,1,1
2017-02-07,"13:48:41",81,3,"Test_Trials_C_4-003-1","C4","TrialProc",5,4,5,4885.385565,2377.986129,1,1,"A A G G H H Q T T U W W","A3 G3 G2 H2 H3 Q3 T3 T2 U2 W4 W4","A4_A3 A3_G3 G3_G2 G2_H2 H2_H3 H3_Q3 Q3_T3 T3_T2 T2_U2 U2_W4 Selec",TRUE,"A","W","W",4,TRUE,12,7,5,215.909090909091,192130,164244,193180,27936,20347,193180,159474,161859,"13:48:41",1,23,16.71264491,"L","L",22.75,"L","M",6,"S","M",10,"L","M",1050,22.75,16.4335784295448,1,1
2017-02-07,"13:48:41",82,3,"Test_Trials_C_4-003-1","C4","TrialRevProc",6,35,6,3239.434682,2158.371557,16,2,"P P Z T T Q H H G G L L","P3 Z2 T2 T1 Q1 H1 H4 G4 G3 L3 L3","P2_P3 P3_Z2 Z2_T2 T2_T1 T1_Q1 Q1_H1 H1_H4 H4_G4 G4_G3 G3_L3 Selec",TRUE,"P","L","L",3,TRUE,12,7,5,291.545454545455,231290,202420,232340,28920,20347,232340,200252,198084,"13:48:41",16,12,2.263846285,"S","S",22.5,"L","M",6,"S","M",10,"L","M",1050,22.5,2.26384628453435,1,1
2017-02-07,"13:48:41",83,3,"Test_Trials_C_4-003-1","C4","TrialRevProc",7,64,8,4388.8882,2294.566965,12,2,"L L G G H H B B C D D J J K K","L1 G1 G2 H2 H1 B1 B2 C2 D2 D3 J3 J2 K2 K2","L2_L1 L1_G1 G1_G2 G2_H2 H2_H1 H1_B1 B1_B2 B2_C2 C2_D2 D2_D3 D3_J3 J3_J2 J2_K2 Selec",TRUE,"L","K","K",1,TRUE,15,8,7,285.785714285714,271400,240196,272451,31255,20347,272451,237894,235593,"13:48:41",12,11,10.0623059,"L","M",20,"S","M",7,"L","M",12,"L","L",1051,20,10.5118980208143,1,1
2017-02-07,"13:48:41",84,3,"Test_Trials_C_4-003-1","C4","TrialProc",8,17,7,2426.046381,2354.997762,12,2,"L L G G H H Q T T X Z P P","L1 G1 G2 H2 H3 Q3 T3 T4 X4 Z1 P2 P2","L2_L1 L1_G1 G1_G2 G2_H2 H2_H3 H3_Q3 Q3_T3 T3_T4 T4_X4 X4_Z1 Z1_P2 Selec",TRUE,"L","P","P",1,TRUE,13,8,5,236.333333333333,310594,281591,311644,29053,20347,311644,276854,279222,"13:48:41",12,16,2.263846285,"S","S",22.5,"L","M",6,"S","M",10,"L","M",1050,22.5,2.26384628453435,1,1
2017-02-07,"14:09:00",85,3,"Test_Trials_C_5-003-1","C5","TrialProc",1,22,5,4453.213607,2394.442406,12,2,"L L G G H H Q Q R S S M M O O","L1 G1 G2 H2 H3 Q3 Q2 R2 S2 S1 M1 M4 O2 O2","L2_L1 L1_G1 G1_G2 G2_H2 H2_H3 H3_Q3 Q3_Q2 Q2_R2 R2_S2 S2_S1 S1_M1 M1_M4 M4_O2 Selec",TRUE,"L","O","O",1,TRUE,15,8,7,434.785714285714,61234,23508,62285,37777,18682,62285,18705,21107,"14:09:00",12,15,8.514693183,"S","M",25.5,"L","L",8,"L","L",14,"L","L",1051,27.5,9.01387818865997,1.07843137254902,1.07843137254902
2017-02-07,"14:09:00",86,3,"Test_Trials_C_5-003-1","C5","TrialRevProc",2,89,7,3388.293334,2628.061645,15,4,"O M M S S R R U U W W","M2 M3 S3 S4 R4 R3 U3 U2 W4 W4","O2_M2 M2_M3 M3_S3 S3_S4 S4_R4 R4_R3 R3_U3 U3_U2 U2_W4 Selec",TRUE,"O","W","W",4,TRUE,11,6,5,423,102262,72025,103313,30288,18682,103313,69390,66754,"14:09:00",15,23,7.25,"S","S",17.75,"S","S",5,"S","S",9,"S","M",1051,17.75,7.25,1,1
2017-02-07,"14:09:00",87,3,"Test_Trials_C_5-003-1","C5","TrialProc",3,13,8,2159.686377,2828.614043,11,2,"K J J R R S S M M O O","J4 J3 R3 R2 S2 S1 M1 M4 O2 O2","K2_J4 J4_J3 J3_R3 R3_R2 R2_S2 S2_S1 S1_M1 M1_M4 M4_O2 Selec",TRUE,"K","O","O",1,TRUE,11,6,5,311.5,141889,112386,142940,29554,18682,142940,106715,109550,"14:09:00",11,15,5.024937811,"S","S",18.5,"S","M",5,"S","S",9,"S","M",1051,19,5.02493781056044,1.02702702702703,1.02702702702703
2017-02-07,"14:09:00",88,3,"Test_Trials_C_5-003-1","C5","TrialProc",4,37,3,5241.141116,2587.192063,11,2,"K J J D D C B B H H G G L L","J4 J1 D1 D4 C4 B4 B3 H3 H4 G4 G3 L3 L3","K2_J4 J4_J1 J1_D1 D1_D4 D4_C4 C4_B4 B4_B3 B3_H3 H3_H4 H4_G4 G4_G3 G3_L3 Selec",TRUE,"K","L","L",3,TRUE,14,8,6,287.461538461538,181816,150311,182867,31556,18682,182867,145109,147709,"14:09:00",11,12,10.0623059,"L","M",20,"S","M",7,"L","M",12,"L","L",1051,20,10.5118980208143,1,1
2017-02-07,"14:09:00",89,3,"Test_Trials_C_5-003-1","C5","TrialRevProc",5,1,6,5882.4357,2226.234131,22,3,"Y Y V V V X X T U U R R S S M E E F F N","Y4 V1 V2 V1 X1 X2 T2 U2 U1 R1 R2 S2 S1 M1 E1 E2 F2 F3 N3","Y2_Y4 Y4_V1 V1_V2 V2_V1 V1_X1 X1_X2 X2_T2 T2_U2 U2_U1 U1_R1 R1_R2 R2_S2 S2_S1 S1_M1 M1_E1 E1_E2 E2_F2 F2_F3 F3_N3",FALSE,"Y","N","N",3,TRUE,20,10,10,254.842105263158,235503,192590,238788,46198,18682,238788,190355,188120,"14:09:00",22,14,12.9059095,"L","L",33.75,"L","L",10,"L","L",16,"L","L",3285,33.75,12.9059094991403,1,1
2017-02-07,"14:09:00",90,3,"Test_Trials_C_5-003-1","C5","TrialRevProc",6,41,1,2985.598372,2569.806548,23,4,"W U T X Z P P Z T T Q H H G G A A","U4 T4 X4 Z1 P2 P3 Z2 T2 T1 Q1 H1 H4 G4 G1 A4 A4","W4_U4 U4_T4 T4_X4 X4_Z1 Z1_P2 P2_P3 P3_Z2 Z2_T2 T2_T1 T1_Q1 Q1_H1 H1_H4 H4_G4 G4_G1 G1_A4 Selec",TRUE,"W","A","A",4,TRUE,17,12,5,191.8125,293826,249862,294876,44014,18682,294876,247277,244692,"14:09:00",23,1,16.71264491,"L","L",22.75,"L","M",6,"S","M",9,"S","M",1050,35.25,16.4335784295448,1.54945054945055,1.54945054945055
2017-02-07,"14:09:00",91,3,"Test_Trials_C_5-003-1","C5","TrialRevProc",7,46,2,4707.80908,2053.64745,12,2,"L L G G H H Q T T X X V Y Y","L1 G1 G2 H2 H3 Q3 T3 T4 X4 X3 V2 Y3 Y3","L2_L1 L1_G1 G1_G2 G2_H2 H2_H3 H3_Q3 Q3_T3 T3_T4 T4_X4 X4_X3 X3_V2 V2_Y3 Selec",TRUE,"L","Y","Y",3,TRUE,14,8,6,291.615384615385,332085,302014,333136,30122,18682,333136,299946,297878,"14:09:00",12,22,8.961724164,"S","M",22.75,"L","M",7,"L","M",13,"L","L",1051,22.75,9.22293337284836,1,1
2017-02-07,"14:09:00",92,3,"Test_Trials_C_5-003-1","C5","TrialProc",8,5,4,2453.972263,2785.920882,23,4,"W U U R J D D C C I I","U4 U1 R1 J1 D1 D4 C4 C3 I2 I2","W4_U4 U4_U1 U1_R1 R1_J1 J1_D1 D1_D4 D4_C4 C4_C3 C3_I2 Selec",TRUE,"W","I","I",1,TRUE,11,7,4,283.6,371345,343459,372396,27937,18682,372396,337856,340657,"14:09:00",23,9,11.47006975,"L","L",21.25,"S","M",6,"S","M",9,"S","M",1051,21.25,11.6538620208067,1,1
2017-02-07,"14:02:52",93,3,"Test_Trials_C_6-003-1","C6","TrialProc",1,18,8,5939.547549,2432.670237,16,2,"P P Z T T T X X X X V Y Y","P3 Z2 T2 T1 T4 X4 X3 X2 X3 V2 Y3 Y3","P2_P3 P3_Z2 Z2_T2 T2_T1 T1_T4 T4_X4 X4_X3 X3_X2 X2_X3 X3_V2 V2_Y3 Selec",TRUE,"P","Y","Y",3,TRUE,13,6,7,261.416666666667,50273,24138,51323,26185,19216,51323,19235,21686,"14:02:52",16,22,7.267220927,"S","S",10.25,"S","S",3,"S","S",6,"S","S",1050,12.75,7.26722092687432,1.24390243902439,1.24390243902439
2017-02-07,"14:02:52",94,3,"Test_Trials_C_6-003-1","C6","TrialRevProc",2,54,3,4089.223705,2069.7056,15,4,"O M M S S R Q Q T T X Z P P","M2 M3 S3 S4 R4 Q4 Q3 T3 T4 X4 Z1 P2 P2","O2_M2 M2_M3 M3_S3 S3_S4 S4_R4 R4_Q4 Q4_Q3 Q3_T3 T3_T4 T4_X4 X4_Z1 Z1_P2 Selec",TRUE,"O","P","P",1,TRUE,14,9,5,237.384615384615,95770,61830,96821,33991,19216,96821,59362,57277,"14:02:52",15,16,8.923284149,"S","M",25,"L","L",7,"L","M",11,"L","M",1051,25,8.92328414878737,1,1
2017-02-07,"14:02:52",95,3,"Test_Trials_C_6-003-1","C6","TrialProc",3,43,7,4436.662131,2453.972263,12,2,"L L G A A","L1 G1 A4 A4","L2_L1 L1_G1 G1_A4 Selec",TRUE,"L","A","A",4,TRUE,5,3,2,643.25,116434,105860,117485,10625,19216,117485,100924,103392,"14:02:52",12,1,6.08276253,"S","S",6,"S","S",2,"S","S",3,"S","S",1051,6,6,1,1
2017-02-07,"14:02:52",96,3,"Test_Trials_C_6-003-1","C6","TrialProc",4,26,5,4294.566965,2748.71133,14,3,"N N F F E D C B B H Q T T X Z P P","N1 F1 F4 E4 D4 C4 B4 B3 H3 Q3 T3 T4 X4 Z1 P2 P2","N3_N1 N1_F1 F1_F4 F4_E4 E4_D4 D4_C4 C4_B4 B4_B3 B3_H3 H3_Q3 Q3_T3 T3_T4 T4_X4 X4_Z1 Z1_P2 Selec",TRUE,"N","P","P",1,TRUE,17,12,5,189.75,165601,127475,166652,38177,19216,166652,121938,124707,"14:02:52",14,16,14.25219281,"L","L",33.5,"L","L",9,"L","L",13,"L","L",1051,33.5,14.2521928137392,1,1
2017-02-07,"14:02:52",97,3,"Test_Trials_C_6-003-1","C6","TrialProc",5,3,1,2861.283697,2642.573374,14,3,"N N F F E E M S S R R U U W W","N1 F1 F4 E4 E3 M3 S3 S4 R4 R3 U3 U2 W4 W4","N3_N1 N1_F1 F1_F4 F4_E4 E4_E3 E3_M3 M3_S3 S3_S4 S4_R4 R4_R3 R3_U3 U3_U2 U2_W4 Selec",TRUE,"N","W","W",4,TRUE,15,8,7,207.071428571429,213250,176258,214301,37043,19216,214301,170955,173606,"14:02:52",14,23,10.51487042,"L","M",26.25,"L","L",7,"L","M",11,"L","M",1051,26.25,10.5148704224065,1,1
2017-02-07,"14:02:52",98,3,"Test_Trials_C_6-003-1","C6","TrialRevProc",6,16,4,2985.598372,2847.359876,9,3,"I C C C C D E F F N N","C1 C4 C3 C2 D2 E2 F2 F3 N3 N3","I2_C1 C1_C4 C4_C3 C3_C2 C2_D2 D2_E2 E2_F2 F2_F3 F3_N3 Selec",TRUE,"I","N","N",3,TRUE,11,6,5,444.4,246640,222891,247690,23799,19216,247690,220039,217186,"14:02:52",9,14,9.124143795,"L","M",17,"S","S",5,"S","S",8,"S","S",1050,17,9.61769203083567,1,1
2017-02-07,"14:02:52",99,3,"Test_Trials_C_6-003-1","C6","TrialRevProc",7,13,6,4394.442406,2828.614043,15,4,"O M M E E F F N N","M2 M1 E1 E2 F2 F3 N3 N3","O2_M2 M2_M1 M1_E1 E1_E2 E2_F2 F2_F3 F3_N3 Selec",TRUE,"O","N","N",3,TRUE,9,5,4,297.75,277861,256363,278911,21548,19216,278911,253527,250692,"14:02:52",15,14,5.385164807,"S","S",16,"S","S",4,"S","S",7,"S","S",1050,16,5.3851648071345,1,1
2017-02-07,"14:02:52",100,3,"Test_Trials_C_6-003-1","C6","TrialRevProc",8,27,2,3053.64745,2388.8882,22,3,"Y Y V X X T T Q H H G G A A","Y4 V1 X1 X2 T2 T1 Q1 H1 H4 G4 G1 A4 A4","Y2_Y4 Y4_V1 V1_X1 X1_X2 X2_T2 T2_T1 T1_Q1 Q1_H1 H1_H4 H4_G4 G4_G1 G1_A4 Selec",TRUE,"Y","A","A",4,TRUE,14,8,6,205.461538461538,319272,288118,320323,31205,19216,320323,285716,283314,"14:02:52",22,1,14.80920322,"L","L",21.25,"S","M",7,"L","M",13,"L","L",1051,21.25,14.6308748883995,1,1
2017-02-21,"16:17:14",101,4,"Explore-004-2","2",NA,NA,NA,NA,NA,NA,NA,NA,"T U U R R Q Q T T X Z P P Z X X V V X X T U U R R S S M E E E E F F F E D C C I C C B B H Q Q Q Q Q H H G G A A G L L G G H H B B C D D J R R R R R J J K J J J J R U U U R R R R R J J K J J J J R U U W U T X Z P P Z X T T Q Q R R U U W U U R R R R Q Q T T X Z P P Z X X V V X X T T Q H H G G G G L L G A","U2 U1 R1 R4 Q4 Q3 T3 T4 X4 Z1 P2 P3 Z2 X2 X3 V2 V1 X1 X2 T2 U2 U1 R1 R2 S2 S1 M1 E1 E4 E3 E2 F2 F3 F4 E4 D4 C4 C3 I2 C1 C4 B4 B3 H3 Q3 Q2 Q1 Q2 Q1 H1 H4 G4 G1 A4 A3 G3 L2 L1 G1 G2 H2 H1 B1 B2 C2 D2 D3 J3 R3 R4 R3 R2 R1 J1 J2 K2 J4 J1 J2 J3 R3 U3 U4 U1 R1 R4 R3 R2 R1 J1 J2 K2 J4 J1 J2 J3 R3 U3 U2 W4 U4 T4 X4 Z1 P2 P3 Z2 X2 T2 T1 Q1 Q2 R2 R3 U3 U2 W4 U4 U1 R1 R2 R1 R4 Q4 Q3 T3 T4 X4 Z1 P2 P3 Z2 X2 X3 V2 V1 X1 X2 T2 T1 Q1 H1 H4 G4 G1 G2 G3 L2 L1 G1 A4 NA","T2_U2 U2_U1 U1_R1 R1_R4 R4_Q4 Q4_Q3 Q3_T3 T3_T4 T4_X4 X4_Z1 Z1_P2 P2_P3 P3_Z2 Z2_X2 X2_X3 X3_V2 V2_V1 V1_X1 X1_X2 X2_T2 T2_U2 U2_U1 U1_R1 R1_R2 R2_S2 S2_S1 S1_M1 M1_E1 E1_E4 E4_E3 E3_E2 E2_F2 F2_F3 F3_F4 F4_E4 E4_D4 D4_C4 C4_C3 C3_I2 I2_C1 C1_C4 C4_B4 B4_B3 B3_H3 H3_Q3 Q3_Q2 Q2_Q1 Q1_Q2 Q2_Q1 Q1_H1 H1_H4 H4_G4 G4_G1 G1_A4 A4_A3 A3_G3 G3_L2 L2_L1 L1_G1 G1_G2 G2_H2 H2_H1 H1_B1 B1_B2 B2_C2 C2_D2 D2_D3 D3_J3 J3_R3 R3_R4 R4_R3 R3_R2 R2_R1 R1_J1 J1_J2 J2_K2 K2_J4 J4_J1 J1_J2 J2_J3 J3_R3 R3_U3 U3_U4 U4_U1 U1_R1 R1_R4 R4_R3 R3_R2 R2_R1 R1_J1 J1_J2 J2_K2 K2_J4 J4_J1 J1_J2 J2_J3 J3_R3 R3_U3 U3_U2 U2_W4 W4_U4 U4_T4 T4_X4 X4_Z1 Z1_P2 P2_P3 P3_Z2 Z2_X2 X2_T2 T2_T1 T1_Q1 Q1_Q2 Q2_R2 R2_R3 R3_U3 U3_U2 U2_W4 W4_U4 U4_U1 U1_R1 R1_R2 R2_R1 R1_R4 R4_Q4 Q4_Q3 Q3_T3 T3_T4 T4_X4 X4_Z1 Z1_P2 P2_P3 P3_Z2 Z2_X2 X2_X3 X3_V2 V2_V1 V1_X1 X1_X2 X2_T2 T2_T1 T1_Q1 Q1_H1 H1_H4 H4_G4 G4_G1 G1_G2 G2_G3 G3_L2 L2_L1 L1_G1 G1_A4",NA,NA,NA,"A",4,NA,152,80,72,880.655629139073,NA,40472,533934,493462,40454,NA,NA,NA,"16:17:14",NA,NA,NA,NA,NA,NA,NA,NA,NA,NA,NA,NA,NA,NA,NA,258.25,12.1269328356349,NA,NA
2017-02-21,"16:07:00",102,4,"Explore-004-4","1",NA,NA,NA,NA,NA,NA,NA,NA,"B H H G G L L G A A G G H H Q Q R S S M M O M M M M E E D D J J K J J J J R R R R R R Q Q H H G G L L G A A G G H H B B C D E F F N N F F E E M S S S M M O M M E E F F F E E E D D D C C I C C C C B B H H G G L L G A A G G H H Q Q Q T T U W U U R R Q Q H H G G L L G G H H H H Q T T X X V Y Y V X Z P P Z X T U W U U R R S S M M O","H3 H4 G4 G3 L2 L1 G1 A4 A3 G3 G2 H2 H3 Q3 Q2 R2 S2 S1 M1 M4 O2 M2 M3 M4 M1 E1 E4 D4 D3 J3 J2 K2 J4 J1 J2 J3 R3 R2 R1 R2 R1 R4 Q4 Q1 H1 H4 G4 G3 L2 L1 G1 A4 A3 G3 G2 H2 H1 B1 B2 C2 D2 E2 F2 F3 N3 N1 F1 F4 E4 E3 M3 S3 S4 S1 M1 M4 O2 M2 M1 E1 E2 F2 F3 F4 E4 E3 E4 D4 D3 D4 C4 C3 I2 C1 C2 C3 C4 B4 B3 H3 H4 G4 G3 L2 L1 G1 A4 A3 G3 G2 H2 H3 Q3 Q2 Q3 T3 T2 U2 W4 U4 U1 R1 R4 Q4 Q1 H1 H4 G4 G3 L2 L1 G1 G2 H2 H1 H4 H3 Q3 T3 T4 X4 X3 V2 Y3 Y4 V1 X1 Z1 P2 P3 Z2 X2 T2 U2 W4 U4 U1 R1 R2 S2 S1 M1 M4 O2 NA","B3_H3 H3_H4 H4_G4 G4_G3 G3_L2 L2_L1 L1_G1 G1_A4 A4_A3 A3_G3 G3_G2 G2_H2 H2_H3 H3_Q3 Q3_Q2 Q2_R2 R2_S2 S2_S1 S1_M1 M1_M4 M4_O2 O2_M2 M2_M3 M3_M4 M4_M1 M1_E1 E1_E4 E4_D4 D4_D3 D3_J3 J3_J2 J2_K2 K2_J4 J4_J1 J1_J2 J2_J3 J3_R3 R3_R2 R2_R1 R1_R2 R2_R1 R1_R4 R4_Q4 Q4_Q1 Q1_H1 H1_H4 H4_G4 G4_G3 G3_L2 L2_L1 L1_G1 G1_A4 A4_A3 A3_G3 G3_G2 G2_H2 H2_H1 H1_B1 B1_B2 B2_C2 C2_D2 D2_E2 E2_F2 F2_F3 F3_N3 N3_N1 N1_F1 F1_F4 F4_E4 E4_E3 E3_M3 M3_S3 S3_S4 S4_S1 S1_M1 M1_M4 M4_O2 O2_M2 M2_M1 M1_E1 E1_E2 E2_F2 F2_F3 F3_F4 F4_E4 E4_E3 E3_E4 E4_D4 D4_D3 D3_D4 D4_C4 C4_C3 C3_I2 I2_C1 C1_C2 C2_C3 C3_C4 C4_B4 B4_B3 B3_H3 H3_H4 H4_G4 G4_G3 G3_L2 L2_L1 L1_G1 G1_A4 A4_A3 A3_G3 G3_G2 G2_H2 H2_H3 H3_Q3 Q3_Q2 Q2_Q3 Q3_T3 T3_T2 T2_U2 U2_W4 W4_U4 U4_U1 U1_R1 R1_R4 R4_Q4 Q4_Q1 Q1_H1 H1_H4 H4_G4 G4_G3 G3_L2 L2_L1 L1_G1 G1_G2 G2_H2 H2_H1 H1_H4 H4_H3 H3_Q3 Q3_T3 T3_T4 T4_X4 X4_X3 X3_V2 V2_Y3 Y2_Y4 Y4_V1 V1_X1 X1_Z1 Z1_P2 P2_P3 P3_Z2 Z2_X2 X2_T2 T2_U2 U2_W4 W4_U4 U4_U1 U1_R1 R1_R2 R2_S2 S2_S1 S1_M1 M1_M4 M4_O2",NA,NA,NA,"O",1,NA,165,86,79,489.55487804878,NA,44491,524660,480169,44452,NA,NA,NA,"16:07:00",NA,NA,NA,NA,NA,NA,NA,NA,NA,NA,NA,NA,NA,NA,NA,292,8.84590300647707,NA,NA
2017-02-21,"16:29:12",103,4,"Test_Trials_A_2-004-1","A2","TrialProc",1,60,2,3551.312506,2985.598372,22,3,"Y Y V X X T T Q H B B C D D D E F F","Y4 V1 X1 X2 T2 T1 Q1 H1 B1 B2 C2 D2 D3 D2 E2 F2 F3","Y2_Y4 Y4_V1 V1_X1 X1_X2 X2_T2 T2_T1 T1_Q1 Q1_H1 H1_B1 B1_B2 B2_C2 C2_D2 D2_D3 D3_D2 D2_E2 E2_F2 F2_F3",FALSE,"Y","L","F",3,FALSE,18,10,8,648.176470588235,284875,240893,286501,45608,234872,286501,234894,237894,"16:29:12",22,6,16.433578,"L","L",29.25,"L","L",10,"L","L",14,"L","L",1626,29.25,16.4335784295448,1,NA
2017-02-21,"16:29:12",104,4,"Test_Trials_A_2-004-1","A2","TrialProc",2,8,6,2426.046381,2935.62974,23,4,"W U T T T T Q Q R R J J K K","U4 T4 T1 T2 T1 Q1 Q2 R2 R1 J1 J2 K2 K2","W4_U4 U4_T4 T4_T1 T1_T2 T2_T1 T1_Q1 Q1_Q2 Q2_R2 R2_R1 R1_J1 J1_J2 J2_K2 Selec",TRUE,"W","K","K",1,TRUE,14,7,7,640.230769230769,337255,295967,338309,41342,234872,338309,290074,293021,"16:29:12",23,11,12.26019984,"L","L",15.75,"S","S",4,"S","S",6,"S","S",1054,24.75,12.2601998352392,1.57142857142857,1.57142857142857
2017-02-21,"16:29:12",105,4,"Test_Trials_A_2-004-1","A2","TrialRevProc",3,45,1,4429.900691,2967.951443,22,3,"Y Y V X Z P P Z T U W W","Y4 V1 X1 Z1 P2 P3 Z2 T2 U2 W4 W4","Y2_Y4 Y4_V1 V1_X1 X1_Z1 Z1_P2 P2_P3 P3_Z2 Z2_T2 T2_U2 U2_W4 Selec",TRUE,"Y","P","W",4,FALSE,12,9,3,383.818181818182,384316,346721,385370,37649,234872,385370,343735,340748,"16:29:12",22,23,4,"S","S",14.5,"S","S",5,"S","S",8,"S","S",1054,24.5,4,1.68965517241379,NA
2017-02-21,"16:29:12",106,4,"Test_Trials_A_2-004-1","A2","TrialRevProc",4,41,7,4770.501286,2569.806548,1,1,"A A G L L G G H H Q Q R S S M M O O","A3 G3 L3 L1 G1 G2 H2 H3 Q3 Q2 R2 S2 S1 M1 M4 O2 O2","A4_A3 A3_G3 G3_L3 L2_L1 L1_G1 G1_G2 G2_H2 H2_H3 H3_Q3 Q3_Q2 Q2_R2 R2_S2 S2_S1 S1_M1 M1_M4 M4_O2 Selec",TRUE,"A","O","O",1,TRUE,18,10,8,306.764705882353,440056,394995,441110,45115,234872,441110,392409,389822,"16:29:12",1,15,11.51086443,"L","L",24,"L","L",8,"L","L",14,"L","L",1054,33.5,11.1018016555873,1.39583333333333,1.39583333333333
2017-02-21,"16:29:12",107,4,"Test_Trials_A_2-004-1","A2","TrialProc",5,31,8,5069.7056,2660.036622,9,3,"I C C D D J R R S S M M O O","C1 C2 D2 D3 J3 R3 R2 S2 S1 M1 M4 O2 O2","I2_C1 C1_C2 C2_D2 D2_D3 D3_J3 J3_R3 R3_R2 R2_S2 S2_S1 S1_M1 M1_M4 M4_O2 Selec",TRUE,"I","O","O",1,TRUE,14,8,6,761.230769230769,491744,451242,492797,40555,234872,492797,445896,448562,"16:29:12",9,15,5.315072906,"S","S",18,"S","M",5,"S","S",9,"S","M",1053,24.5,5.70087712549569,1.36111111111111,1.36111111111111
2017-02-21,"16:29:12",108,4,"Test_Trials_A_2-004-1","A2","TrialProc",6,95,3,4515.92406,2495.385681,11,2,"K J J J J R U U T X Z P P","J4 J1 J2 J3 R3 U3 U4 T4 X4 Z1 P2 P2","K2_J4 J4_J1 J1_J2 J2_J3 J3_R3 R3_U3 U3_U4 U4_T4 T4_X4 X4_Z1 Z1_P2 Selec",TRUE,"K","A","P",1,FALSE,13,8,5,865.75,543377,502889,544431,40542,234872,544431,497876,500383,"16:29:12",11,16,11.45098249,"L","L",23,"L","M",6,"S","M",8,"S","S",1054,23,11.4509824905988,1,NA
2017-02-21,"16:29:12",109,4,"Test_Trials_A_2-004-1","A2","TrialRevProc",7,18,4,5069.7056,2432.670237,14,3,"N N F F E E M M M S S R Q Q T T U","N1 F1 F4 E4 E3 M3 M4 M3 S3 S4 R4 Q4 Q3 T3 T2 U2","N3_N1 N1_F1 F1_F4 F4_E4 E4_E3 E3_M3 M3_M4 M4_M3 M3_S3 S3_S4 S4_R4 R4_Q4 Q4_Q3 Q3_T3 T3_T2 T2_U2",FALSE,"N","Y","U",1,FALSE,17,8,9,610.4375,598464,553870,600851,46981,234872,600851,551416,548963,"16:29:12",14,24,9.737171,"L","M",22.75,"L","L",6,"L","L",8,"L","M",2387,31.75,9.73717104707522,1.3956043956044,NA
2017-02-21,"16:29:12",110,4,"Test_Trials_A_2-004-1","A2","TrialRevProc",8,47,5,5241.141116,2909.814912,12,2,"L L G G G A A G G H H Q Q Q Q R R J D D","L1 G1 G2 G1 A4 A3 G3 G2 H2 H3 Q3 Q2 Q1 Q2 R2 R1 J1 D1 D4","L2_L1 L1_G1 G1_G2 G2_G1 G1_A4 A4_A3 A3_G3 G3_G2 G2_H2 H2_H3 H3_Q3 Q3_Q2 Q2_Q1 Q1_Q2 Q2_R2 R2_R1 R1_J1 J1_D1 D1_D4",FALSE,"L","N","D",4,FALSE,20,8,12,233.578947368421,655777,611769,657431,45662,234872,657431,608850,605930,"16:29:12",12,4,9.604686,"L","M",13.5,"S","M",5,"L","M",8,"L","M",1654,29.5,9.60468635614927,2.18518518518519,NA
2017-03-07,"15:14:27",111,5,"Explore-005-1","1",NA,NA,NA,NA,NA,NA,NA,NA,"T U W U U R R S S M E E F F N N F F E D C B B H H G G L L G G H H H G G A A G G H H Q T T X X V Y Y V X Z P P Z X T U W U U R R R R Q Q Q Q H H G G A A G L L G G H H B B B B C C I C C D D D E E M M O M M S S S S R R R S S S R R R Q Q T T X Z P P Z X X V V X X T T T U W U U U T T T U U R R R R S S M M O M M E E E E F F","U2 W4 U4 U1 R1 R2 S2 S1 M1 E1 E2 F2 F3 N3 N1 F1 F4 E4 D4 C4 B4 B3 H3 H4 G4 G3 L2 L1 G1 G2 H2 H3 H4 G4 G1 A4 A3 G3 G2 H2 H3 Q3 T3 T4 X4 X3 V2 Y3 Y4 V1 X1 Z1 P2 P3 Z2 X2 T2 U2 W4 U4 U1 R1 R2 R1 R4 Q4 Q3 Q2 Q1 H1 H4 G4 G1 A4 A3 G3 L2 L1 G1 G2 H2 H1 B1 B2 B3 B2 C2 C3 I2 C1 C2 D2 D3 D2 E2 E3 M3 M4 O2 M2 M3 S3 S4 S1 S4 R4 R3 R2 S2 S1 S4 R4 R1 R4 Q4 Q3 T3 T4 X4 Z1 P2 P3 Z2 X2 X3 V2 V1 X1 X2 T2 T1 T2 U2 W4 U4 U1 U4 T4 T1 T2 U2 U1 R1 R4 R1 R2 S2 S1 M1 M4 O2 M2 M1 E1 E4 E3 E2 F2 F3 NA","T2_U2 U2_W4 W4_U4 U4_U1 U1_R1 R1_R2 R2_S2 S2_S1 S1_M1 M1_E1 E1_E2 E2_F2 F2_F3 F3_N3 N3_N1 N1_F1 F1_F4 F4_E4 E4_D4 D4_C4 C4_B4 B4_B3 B3_H3 H3_H4 H4_G4 G4_G3 G3_L2 L2_L1 L1_G1 G1_G2 G2_H2 H2_H3 H3_H4 H4_G4 G4_G1 G1_A4 A4_A3 A3_G3 G3_G2 G2_H2 H2_H3 H3_Q3 Q3_T3 T3_T4 T4_X4 X4_X3 X3_V2 V2_Y3 Y2_Y4 Y4_V1 V1_X1 X1_Z1 Z1_P2 P2_P3 P3_Z2 Z2_X2 X2_T2 T2_U2 U2_W4 W4_U4 U4_U1 U1_R1 R1_R2 R2_R1 R1_R4 R4_Q4 Q4_Q3 Q3_Q2 Q2_Q1 Q1_H1 H1_H4 H4_G4 G4_G1 G1_A4 A4_A3 A3_G3 G3_L2 L2_L1 L1_G1 G1_G2 G2_H2 H2_H1 H1_B1 B1_B2 B2_B3 B3_B2 B2_C2 C2_C3 C3_I2 I2_C1 C1_C2 C2_D2 D2_D3 D3_D2 D2_E2 E2_E3 E3_M3 M3_M4 M4_O2 O2_M2 M2_M3 M3_S3 S3_S4 S4_S1 S1_S4 S4_R4 R4_R3 R3_R2 R2_S2 S2_S1 S1_S4 S4_R4 R4_R1 R1_R4 R4_Q4 Q4_Q3 Q3_T3 T3_T4 T4_X4 X4_Z1 Z1_P2 P2_P3 P3_Z2 Z2_X2 X2_X3 X3_V2 V2_V1 V1_X1 X1_X2 X2_T2 T2_T1 T1_T2 T2_U2 U2_W4 W4_U4 U4_U1 U1_U4 U4_T4 T4_T1 T1_T2 T2_U2 U2_U1 U1_R1 R1_R4 R4_R1 R1_R2 R2_S2 S2_S1 S1_M1 M1_M4 M4_O2 O2_M2 M2_M1 M1_E1 E1_E4 E4_E3 E3_E2 E2_F2 F2_F3",NA,NA,NA,"F",3,NA,160,82,78,636.150943396226,NA,205834,685993,480159,205814,NA,NA,NA,"15:14:27",NA,NA,NA,NA,NA,NA,NA,NA,NA,NA,NA,NA,NA,NA,NA,265.25,16.0954186028199,NA,NA
2017-03-07,"15:26:35",112,5,"Explore-005-2","2",NA,NA,NA,NA,NA,NA,NA,NA,"U U U U U U T T T X X X T T Q Q Q H H G G L L G A A G G H H H H B B C C I C C D D J J K J J J J J J R R S S M M O M M E E E E F F F E D D D D J J K J J D D D D C B B H H G G A A G G H H Q T T X Z P P Z X X V V X X T T T U W U U R R R R R R R J J J D D E E E F F F E E M M O M M S S R R U U W U T T T X X V V X X T T Q Q Q H H G G A A G G H H H H B B C D D D E E E","U2 U1 U4 U1 U4 T4 T1 T4 X4 X3 X2 T2 T1 Q1 Q2 Q1 H1 H4 G4 G3 L2 L1 G1 A4 A3 G3 G2 H2 H3 H4 H1 B1 B2 C2 C3 I2 C1 C2 D2 D3 J3 J2 K2 J4 J3 J2 J1 J2 J3 R3 R2 S2 S1 M1 M4 O2 M2 M1 E1 E4 E3 E2 F2 F3 F4 E4 D4 D3 D4 D3 J3 J2 K2 J4 J1 D1 D2 D3 D4 C4 B4 B3 H3 H4 G4 G1 A4 A3 G3 G2 H2 H3 Q3 T3 T4 X4 Z1 P2 P3 Z2 X2 X3 V2 V1 X1 X2 T2 T1 T2 U2 W4 U4 U1 R1 R4 R3 R2 R1 R4 R1 J1 J2 J1 D1 D2 E2 E3 E2 F2 F3 F4 E4 E3 M3 M4 O2 M2 M3 S3 S4 R4 R3 U3 U2 W4 U4 T4 T1 T4 X4 X3 V2 V1 X1 X2 T2 T1 Q1 Q2 Q1 H1 H4 G4 G1 A4 A3 G3 G2 H2 H3 H4 H1 B1 B2 C2 D2 D3 D2 E2 E3 E2 NA","U1_U2 U2_U1 U1_U4 U4_U1 U1_U4 U4_T4 T4_T1 T1_T4 T4_X4 X4_X3 X3_X2 X2_T2 T2_T1 T1_Q1 Q1_Q2 Q2_Q1 Q1_H1 H1_H4 H4_G4 G4_G3 G3_L2 L2_L1 L1_G1 G1_A4 A4_A3 A3_G3 G3_G2 G2_H2 H2_H3 H3_H4 H4_H1 H1_B1 B1_B2 B2_C2 C2_C3 C3_I2 I2_C1 C1_C2 C2_D2 D2_D3 D3_J3 J3_J2 J2_K2 K2_J4 J4_J3 J3_J2 J2_J1 J1_J2 J2_J3 J3_R3 R3_R2 R2_S2 S2_S1 S1_M1 M1_M4 M4_O2 O2_M2 M2_M1 M1_E1 E1_E4 E4_E3 E3_E2 E2_F2 F2_F3 F3_F4 F4_E4 E4_D4 D4_D3 D3_D4 D4_D3 D3_J3 J3_J2 J2_K2 K2_J4 J4_J1 J1_D1 D1_D2 D2_D3 D3_D4 D4_C4 C4_B4 B4_B3 B3_H3 H3_H4 H4_G4 G4_G1 G1_A4 A4_A3 A3_G3 G3_G2 G2_H2 H2_H3 H3_Q3 Q3_T3 T3_T4 T4_X4 X4_Z1 Z1_P2 P2_P3 P3_Z2 Z2_X2 X2_X3 X3_V2 V2_V1 V1_X1 X1_X2 X2_T2 T2_T1 T1_T2 T2_U2 U2_W4 W4_U4 U4_U1 U1_R1 R1_R4 R4_R3 R3_R2 R2_R1 R1_R4 R4_R1 R1_J1 J1_J2 J2_J1 J1_D1 D1_D2 D2_E2 E2_E3 E3_E2 E2_F2 F2_F3 F3_F4 F4_E4 E4_E3 E3_M3 M3_M4 M4_O2 O2_M2 M2_M3 M3_S3 S3_S4 S4_R4 R4_R3 R3_U3 U3_U2 U2_W4 W4_U4 U4_T4 T4_T1 T1_T4 T4_X4 X4_X3 X3_V2 V2_V1 V1_X1 X1_X2 X2_T2 T2_T1 T1_Q1 Q1_Q2 Q2_Q1 Q1_H1 H1_H4 H4_G4 G4_G1 G1_A4 A4_A3 A3_G3 G3_G2 G2_H2 H2_H3 H3_H4 H4_H1 H1_B1 B1_B2 B2_C2 C2_D2 D2_D3 D3_D2 D2_E2 E2_E3 E3_E2",NA,NA,NA,"E",1,NA,182,81,101,394.281767955801,NA,36978,518884,481906,36958,NA,NA,NA,"15:26:35",NA,NA,NA,NA,NA,NA,NA,NA,NA,NA,NA,NA,NA,NA,NA,250.75,12.2601998352392,NA,NA
2017-03-07,"15:39:23",113,5,"Test_Trials_B_1-005-1","B1","TrialRevProc",1,19,8,3141.597832,2770.817084,23,4,"W U U U T X X X Z Z T T Q Q R R R R","U4 U1 U4 T4 X4 X3 X4 Z1 Z2 T2 T1 Q1 Q2 R2 R3 R4 R1","W4_U4 U4_U1 U1_U4 U4_T4 T4_X4 X4_X3 X3_X4 X4_Z1 Z1_Z2 Z2_T2 T2_T1 T1_Q1 Q1_Q2 Q2_R2 R2_R3 R3_R4 R4_R1",FALSE,"W","N","R",2,FALSE,18,7,11,518.235294117647,85323,40915,86949,46034,35314,86949,38128,35342,"15:39:23",23,18,5.942432,"S","M",7.25,"S","S",2,"S","S",4,"S","S",1626,21.75,5.94243216200236,3,NA
2017-03-07,"15:39:23",114,5,"Test_Trials_B_1-005-1","B1","TrialRevProc",2,93,6,4394.694975,2640.413758,1,1,"A A G L L","A3 G3 L3 L3","A4_A3 A3_G3 G3_L3 Selec",TRUE,"A","L","L",3,TRUE,5,3,2,618,106654,95415,107707,11292,35314,107707,92762,90109,"15:39:23",1,12,6.08276253,"S","S",6,"S","S",2,"S","S",3,"S","S",1053,6,6,1,1
2017-03-07,"15:39:23",115,5,"Test_Trials_B_1-005-1","B1","TrialRevProc",3,18,2,4377.986129,2432.670237,12,2,"L L G G H H Q Q R S S M M O O","L1 G1 G2 H2 H3 Q3 Q2 R2 S2 S1 M1 M4 O2 O2","L2_L1 L1_G1 G1_G2 G2_H2 H2_H3 H3_Q3 Q3_Q2 Q2_R2 R2_S2 S2_S1 S1_M1 M1_M4 M4_O2 Selec",TRUE,"L","O","O",1,TRUE,15,8,7,337.714285714286,153622,117013,154675,36662,35314,154675,114560,112120,"15:39:23",12,15,8.514693183,"S","M",25.5,"L","L",8,"L","L",14,"L","L",1053,27.5,9.01387818865997,1.07843137254902,1.07843137254902
2017-03-07,"15:39:23",116,5,"Test_Trials_B_1-005-1","B1","TrialProc",4,50,1,4885.385565,2074.413146,16,2,"P P Z T U W U U R J D D C C C B B H","P3 Z2 T2 U2 W4 U4 U1 R1 J1 D1 D4 C4 C3 C4 B4 B3 H3","P2_P3 P3_Z2 Z2_T2 T2_U2 U2_W4 W4_U4 U4_U1 U1_R1 R1_J1 J1_D1 D1_D4 D4_C4 C4_C3 C3_C4 C4_B4 B4_B3 B3_H3",FALSE,"P","L","H",3,FALSE,18,11,7,184.176470588235,208242,163247,209762,46515,35314,209762,159075,161155,"15:39:23",16,8,6.600189,"S","M",15.75,"L","M",4,"S","M",6,"S","M",1520,36.25,6.60018939122204,2.3015873015873,NA
2017-03-07,"15:39:23",117,5,"Test_Trials_B_1-005-1","B1","TrialProc",5,50,7,3053.64745,2074.413146,11,2,"K J J R U U W W","J4 J3 R3 U3 U2 W4 W4","K2_J4 J4_J3 J3_R3 R3_U3 U3_U2 U2_W4 Selec",TRUE,"K","W","W",4,TRUE,8,5,3,170.428571428571,241346,218841,242398,22557,35314,242398,214668,216748,"15:39:23",11,23,12.26019984,"L","L",15.75,"S","S",4,"S","S",6,"S","S",1052,15.75,12.2601998352392,1,1
2017-03-07,"15:39:23",118,5,"Test_Trials_B_1-005-1","B1","TrialProc",6,7,5,4174.575203,2501.543986,23,4,"W U T T Q H H G G L L","U4 T4 T1 Q1 H1 H4 G4 G3 L3 L3","W4_U4 U4_T4 T4_T1 T1_Q1 Q1_H1 H1_H4 H4_G4 G4_G3 G3_L3 Selec",TRUE,"W","P","L",3,FALSE,11,7,4,319.6,279861,250491,280914,29423,35314,280914,245465,247985,"15:39:23",23,12,11.50271707,"L","L",24.25,"L","L",6,"S","M",9,"S","M",1053,24.25,11.8769735202197,1,NA
2017-03-07,"15:39:23",119,5,"Test_Trials_B_1-005-1","B1","TrialRevProc",7,49,4,3166.05289,2433.827314,11,2,"K J J J J J J D D E F F F E D C C C B B H","J4 J1 J2 J3 J2 J1 D1 D2 E2 F2 F3 F4 E4 D4 C4 C3 C4 B4 B3 H3","K2_J4 J4_J1 J1_J2 J2_J3 J3_J2 J2_J1 J1_D1 D1_D2 D2_E2 E2_F2 F2_F3 F3_F4 F4_E4 E4_D4 D4_C4 C4_C3 C3_C4 C4_B4 B4_B3 B3_H3",FALSE,"K","P","H",3,FALSE,21,9,12,302.25,334615,289980,336135,46155,35314,336135,287540,285100,"15:39:23",11,8,6.543126,"S","M",13.25,"S","M",5,"L","M",8,"L","M",1520,26.25,6.5431261641512,1.9811320754717,NA
2017-03-07,"15:39:23",120,5,"Test_Trials_B_1-005-1","B1","TrialProc",8,10,3,4918.583374,2388.293334,1,1,"A A G G H H Q Q R R J D D C B B B C D E F F","A3 G3 G2 H2 H3 Q3 Q2 R2 R1 J1 D1 D4 C4 B4 B3 B2 C2 D2 E2 F2 F3","A4_A3 A3_G3 G3_G2 G2_H2 H2_H3 H3_Q3 Q3_Q2 Q2_R2 R2_R1 R1_J1 J1_D1 D1_D4 D4_C4 C4_B4 B4_B3 B3_B2 B2_C2 C2_D2 D2_E2 E2_F2 F2_F3",FALSE,"A","N","F",3,FALSE,22,12,10,279.190476190476,388835,344120,390462,46342,35314,390462,339321,341721,"15:39:23",1,6,14,"L","L",18.5,"L","M",7,"L","L",10,"L","L",1627,39,14,2.10810810810811,NA
2017-03-07,"16:32:35",121,5,"Test_Trials_B_2-005-1","B2","TrialRevProc",1,35,6,4918.583374,2158.371557,15,4,"O M M S S R Q Q T T X Z P P","M2 M3 S3 S4 R4 Q4 Q3 T3 T4 X4 Z1 P2 P2","O2_M2 M2_M3 M3_S3 S3_S4 S4_R4 R4_Q4 Q4_Q3 Q3_T3 T3_T4 T4_X4 X4_Z1 Z1_P2 Selec",TRUE,"O","P","P",1,TRUE,14,9,5,224.538461538462,159580,125463,160633,34170,121101,160633,123290,121117,"16:32:35",15,16,8.923284149,"S","M",25,"L","L",7,"L","M",11,"L","M",1053,25,8.92328414878737,1,1
2017-03-07,"16:32:35",122,5,"Test_Trials_B_2-005-1","B2","TrialRevProc",2,14,7,2909.814912,2957.687638,1,1,"A A G G H H B B C C I I","A3 G3 G2 H2 H1 B1 B2 C2 C3 I2 I2","A4_A3 A3_G3 G3_G2 G2_H2 H2_H1 H1_B1 B1_B2 B2_C2 C2_C3 C3_I2 Selec",TRUE,"A","I","I",1,TRUE,12,6,6,183.545454545455,192869,171511,193922,21411,121101,193922,168538,165565,"16:32:35",1,9,6.264982043,"S","S",12,"S","S",5,"S","S",10,"L","M",1053,12,5.40832691319598,1,1
2017-03-07,"16:32:35",123,5,"Test_Trials_B_2-005-1","B2","TrialProc",3,18,2,2159.686377,2432.670237,9,3,"I C C D E F F N N","C1 C2 D2 E2 F2 F3 N3 N3","I2_C1 C1_C2 C2_D2 D2_E2 E2_F2 F2_F3 F3_N3 Selec",TRUE,"I","N","N",3,TRUE,9,6,3,180.75,219080,201721,220133,17412,121101,220133,196842,199282,"16:32:35",9,14,9.124143795,"L","M",17,"S","S",5,"S","S",8,"S","S",1053,17,9.61769203083567,1,1
2017-03-07,"16:32:35",124,5,"Test_Trials_B_2-005-1","B2","TrialProc",4,64,1,5090.316229,2294.566965,11,2,"K J J D D C B B H H G G A A","J4 J1 D1 D4 C4 B4 B3 H3 H4 G4 G1 A4 A4","K2_J4 J4_J1 J1_D1 D1_D4 D4_C4 C4_B4 B4_B3 B3_H3 H3_H4 H4_G4 G4_G1 G1_A4 Selec",TRUE,"K","A","A",4,TRUE,14,8,6,199.846153846154,256715,226919,257768,29849,121101,257768,222306,224612,"16:32:35",11,1,10.11187421,"L","M",18.5,"S","M",7,"L","M",12,"L","L",1053,18.5,9.61769203083567,1,1
2017-03-07,"16:32:35",125,5,"Test_Trials_B_2-005-1","B2","TrialRevProc",5,12,3,4607.698604,2712.950582,16,2,"P P Z T U W W","P3 Z2 T2 U2 W4 W4","P2_P3 P3_Z2 Z2_T2 T2_U2 U2_W4 Selec",TRUE,"P","W","W",4,TRUE,7,5,2,142.833333333333,285272,268314,286325,17011,121101,286325,265594,262875,"16:32:35",16,23,10.3350133,"L","M",14.25,"S","S",4,"S","S",5,"S","S",1053,14.25,10.3350133042972,1,1
2017-03-07,"16:32:35",126,5,"Test_Trials_B_2-005-1","B2","TrialProc",6,14,5,2074.413146,2957.687638,9,3,"I C C B B H H G G L L","C1 C4 B4 B3 H3 H4 G4 G3 L3 L3","I2_C1 C1_C4 C4_B4 B4_B3 B3_H3 H3_H4 H4_G4 G4_G3 G3_L3 Selec",TRUE,"I","L","L",3,TRUE,11,6,5,215.4,319521,297204,320575,22371,121101,320575,290951,293924,"16:32:35",9,12,5.408326913,"S","S",13.5,"S","S",5,"S","S",9,"S","M",1054,13.5,5.40832691319598,1,1
2017-03-07,"16:32:35",127,5,"Test_Trials_B_2-005-1","B2","TrialProc",7,57,4,4377.986129,2402.825646,22,3,"Y Y V X X T T Q H H G G L L","Y4 V1 X1 X2 T2 T1 Q1 H1 H4 G4 G3 L3 L3","Y2_Y4 Y4_V1 V1_X1 X1_X2 X2_T2 T2_T1 T1_Q1 Q1_H1 H1_H4 H4_G4 G4_G3 G3_L3 Selec",TRUE,"Y","L","L",3,TRUE,14,8,6,240.153846153846,360157,327494,361210,32716,121101,361210,322668,325081,"16:32:35",22,12,8.961724164,"S","M",22.75,"L","M",7,"L","M",13,"L","L",1053,22.75,9.22293337284836,1,1
2017-03-07,"16:32:35",128,5,"Test_Trials_B_2-005-1","B2","TrialRevProc",8,38,8,4174.575203,2235.418769,22,3,"Y Y V X X T U U R J J K K","Y4 V1 X1 X2 T2 U2 U1 R1 J1 J2 K2 K2","Y2_Y4 Y4_V1 V1_X1 X1_X2 X2_T2 T2_U2 U2_U1 U1_R1 R1_J1 J1_J2 J2_K2 Selec",TRUE,"Y","K","K",1,TRUE,13,8,5,165.25,401379,370076,402432,31356,121101,402432,367836,365596,"16:32:35",22,11,13.05038314,"L","L",23.25,"L","M",7,"L","M",12,"L","L",1053,23.25,13.0503831361382,1,1
2017-03-07,"15:47:12",129,5,"Test_Trials_B_3-005-1","B3","TrialProc",1,45,3,4859.382159,2967.951443,22,3,"Y Y V X X T U U R J J J R R S S M M O","Y4 V1 X1 X2 T2 U2 U1 R1 J1 J2 J3 R3 R2 S2 S1 M1 M4 O2","Y2_Y4 Y4_V1 V1_X1 X1_X2 X2_T2 T2_U2 U2_U1 U1_R1 R1_J1 J1_J2 J2_J3 J3_R3 R3_R2 R2_S2 S2_S1 S1_M1 M1_M4 M4_O2",FALSE,"Y","O","O",1,TRUE,19,10,9,265.222222222222,86418,42917,91937,49020,36939,91937,36957,39943,"15:47:12",22,15,8.280247581,"S","M",25.25,"L","L",8,"L","L",15,"L","L",5519,35.25,8.2802475808396,1.3960396039604,1.3960396039604
2017-03-07,"15:47:12",130,5,"Test_Trials_B_3-005-1","B3","TrialRevProc",2,24,5,4885.385565,2342.706841,14,3,"N N F F E D C C C B B H Q T T U W W","N1 F1 F4 E4 D4 C4 C3 C4 B4 B3 H3 Q3 T3 T2 U2 W4 W4","N3_N1 N1_F1 F1_F4 F4_E4 E4_D4 D4_C4 C4_C3 C3_C4 C4_B4 B4_B3 B3_H3 H3_Q3 Q3_T3 T3_T2 T2_U2 U2_W4 Selec",TRUE,"N","W","W",4,TRUE,18,11,7,332,146385,101523,147438,44915,36939,147438,99163,96804,"15:47:12",14,23,10.51487042,"L","M",26.25,"L","L",7,"L","M",11,"L","M",1053,35.25,10.5148704224065,1.34285714285714,1.34285714285714
2017-03-07,"15:47:12",131,5,"Test_Trials_B_3-005-1","B3","TrialProc",3,38,4,4429.900691,2235.418769,12,2,"L L G G H H B B C D D J J K K","L1 G1 G2 H2 H1 B1 B2 C2 D2 D3 J3 J2 K2 K2","L2_L1 L1_G1 G1_G2 G2_H2 H2_H1 H1_B1 B1_B2 B2_C2 C2_D2 D2_D3 D3_J3 J3_J2 J2_K2 Selec",TRUE,"L","K","K",1,TRUE,15,8,7,236.714285714286,187673,156823,188726,30903,36939,188726,152331,154584,"15:47:12",12,11,10.0623059,"L","M",20,"S","M",7,"L","M",12,"L","L",1053,20,10.5118980208143,1,1
2017-03-07,"15:47:12",132,5,"Test_Trials_B_3-005-1","B3","TrialRevProc",4,81,7,5882.4357,2708.437833,1,1,"A A G G H H Q T T X X V Y Y","A3 G3 G2 H2 H3 Q3 T3 T4 X4 X3 V2 Y3 Y3","A4_A3 A3_G3 G3_G2 G2_H2 H2_H3 H3_Q3 Q3_T3 T3_T4 T4_X4 X4_X3 X3_V2 V2_Y3 Selec",TRUE,"A","Y","Y",3,TRUE,14,8,6,185.923076923077,226736,198605,227789,28184,36939,227789,195886,193166,"15:47:12",1,22,14.80920322,"L","L",21.25,"S","M",7,"L","M",13,"L","L",1053,21.25,14.6308748883995,1,1
2017-03-07,"15:47:12",133,5,"Test_Trials_B_3-005-1","B3","TrialProc",5,76,2,4495.385681,2429.900691,9,3,"I C C D D J R R R R Q Q H H G G A A","C1 C2 D2 D3 J3 R3 R2 R3 R4 Q4 Q1 H1 H4 G4 G1 A4 A4","I2_C1 C1_C2 C2_D2 D2_D3 D3_J3 J3_R3 R3_R2 R2_R3 R3_R4 R4_Q4 Q4_Q1 Q1_H1 H1_H4 H4_G4 G4_G1 G1_A4 Selec",TRUE,"I","A","A",4,TRUE,18,9,9,144.352941176471,278383,238561,279436,39875,36939,279436,233681,236121,"15:47:12",9,1,6.264982043,"S","S",12,"S","S",5,"S","S",10,"L","M",1053,29.5,5.40832691319598,2.45833333333333,2.45833333333333
2017-03-07,"15:47:12",134,5,"Test_Trials_B_3-005-1","B3","TrialRevProc",6,34,1,2748.71133,2074.75084,9,3,"I C C B B H Q T T U W U U R J D","C1 C4 B4 B3 H3 Q3 T3 T2 U2 W4 U4 U1 R1 J1 D1","I2_C1 C1_C4 C4_B4 B4_B3 B3_H3 H3_Q3 Q3_T3 T3_T2 T2_U2 U2_W4 W4_U4 U4_U1 U1_R1 R1_J1 J1_D1",FALSE,"I","Y","D",2,FALSE,16,11,5,193.333333333333,331337,288102,333657,45555,36939,333657,286023,283942,"15:47:12",9,4,4.242641,"S","S",6,"S","S",2,"S","S",3,"S","S",2320,39.5,4.24264068711928,6.58333333333333,NA
2017-03-07,"15:47:12",135,5,"Test_Trials_B_3-005-1","B3","TrialRevProc",7,5,8,2432.670237,2785.920882,16,2,"P P Z T T Q H B B C D E F F F E D C C I I","P3 Z2 T2 T1 Q1 H1 B1 B2 C2 D2 E2 F2 F3 F4 E4 D4 C4 C3 I2 I2","P2_P3 P3_Z2 Z2_T2 T2_T1 T1_Q1 Q1_H1 H1_B1 B1_B2 B2_C2 C2_D2 D2_E2 E2_F2 F2_F3 F3_F4 F4_E4 E4_D4 D4_C4 C4_C3 C3_I2 Selec",TRUE,"P","I","I",1,TRUE,21,14,7,218.1,386744,342016,387797,44781,36939,387797,339216,336416,"15:47:12",16,9,7.079901129,"S","S",22.5,"L","M",7,"L","M",11,"L","M",1053,41.5,6.75462804305315,1.84444444444444,1.84444444444444
2017-03-07,"15:47:12",136,5,"Test_Trials_B_3-005-1","B3","TrialProc",8,89,6,5939.547549,2628.061645,23,4,"W U T T Q Q R S S M M O O","U4 T4 T1 Q1 Q2 R2 S2 S1 M1 M4 O2 O2","W4_U4 U4_T4 T4_T1 T1_Q1 Q1_Q2 Q2_R2 R2_S2 S2_S1 S1_M1 M1_M4 M4_O2 Selec",TRUE,"W","O","O",1,TRUE,13,8,5,270.166666666667,429899,395890,430952,34062,36939,430952,390250,392890,"15:47:12",23,15,7.25,"S","S",17.75,"S","S",5,"S","S",9,"S","M",1053,26.75,7.25,1.50704225352113,1.50704225352113
2017-03-07,"15:54:54",137,5,"Test_Trials_B_4-005-1","B4","TrialProc",1,51,5,5520.968466,2464.230883,12,2,"L L G G H H Q Q R R U U U R J D D C C","L1 G1 G2 H2 H3 Q3 Q2 R2 R3 U3 U2 U1 R1 J1 D1 D4 C4 C3","L2_L1 L1_G1 G1_G2 G2_H2 H2_H3 H3_Q3 Q3_Q2 Q2_R2 R2_R3 R3_U3 U3_U2 U2_U1 U1_R1 R1_J1 J1_D1 D1_D4 D4_C4 C4_C3",FALSE,"L","N","C",3,FALSE,19,9,10,254.444444444444,71932,27830,73559,45729,22845,73559,22871,25351,"15:54:54",12,3,7.5,"S","M",10.5,"S","M",4,"S","M",7,"S","M",1627,35.5,7.5,3.38095238095238,NA
2017-03-07,"15:54:54",138,5,"Test_Trials_B_4-005-1","B4","TrialRevProc",2,8,6,3120.67833,2935.62974,22,3,"Y Y V X X T T Q H H G G L L","Y4 V1 X1 X2 T2 T1 Q1 H1 H4 G4 G3 L3 L3","Y2_Y4 Y4_V1 V1_X1 X1_X2 X2_T2 T2_T1 T1_Q1 Q1_H1 H1_H4 H4_G4 G4_G3 G3_L3 Selec",TRUE,"Y","A","L",3,FALSE,14,8,6,413.230769230769,119887,84984,120940,34956,22845,120940,82038,79091,"15:54:54",22,12,8.961724164,"S","M",22.75,"L","M",7,"L","M",13,"L","L",1053,22.75,9.22293337284836,1,NA
2017-03-07,"15:54:54",139,5,"Test_Trials_B_4-005-1","B4","TrialRevProc",3,67,1,4436.662131,2141.597832,11,2,"K J J D D C B B H H G G G H H B B C D E F F N","J4 J1 D1 D4 C4 B4 B3 H3 H4 G4 G1 G2 H2 H1 B1 B2 C2 D2 E2 F2 F3 N3","K2_J4 J4_J1 J1_D1 D1_D4 D4_C4 C4_B4 B4_B3 B3_H3 H3_H4 H4_G4 G4_G1 G1_G2 G2_H2 H2_H1 H1_B1 B1_B2 B2_C2 C2_D2 D2_E2 E2_F2 F2_F3 F3_N3",FALSE,"K","N","N",3,TRUE,23,13,10,218.454545454545,173201,128379,176494,48115,22845,176494,126233,124073,"15:54:54",11,14,5.408326913,"S","S",17.5,"S","S",5,"S","S",8,"S","S",3293,37,5.40832691319598,2.11428571428571,2.11428571428571
2017-03-07,"15:54:54",140,5,"Test_Trials_B_4-005-1","B4","TrialRevProc",4,86,3,4770.501286,2527.572218,14,3,"N N F F E D C C C B B H H G G A A","N1 F1 F4 E4 D4 C4 C3 C4 B4 B3 H3 H4 G4 G1 A4 A4","N3_N1 N1_F1 F1_F4 F4_E4 E4_D4 D4_C4 C4_C3 C3_C4 C4_B4 B4_B3 B3_H3 H3_H4 H4_G4 G4_G1 G1_A4 Selec",TRUE,"N","A","A",4,TRUE,17,9,8,162.1875,220169,186013,221222,34209,22845,221222,183480,180946,"15:54:54",14,1,15.18222645,"L","L",23,"L","M",8,"L","L",13,"L","L",1053,23,14.7054411698527,1,1
2017-03-07,"15:54:54",141,5,"Test_Trials_B_4-005-1","B4","TrialProc",5,33,7,4089.223705,2174.575203,15,4,"O M M M M S S R R U U W W","M2 M1 M4 M3 S3 S4 R4 R3 U3 U2 W4 W4","O2_M2 M2_M1 M1_M4 M4_M3 M3_S3 S3_S4 S4_R4 R4_R3 R3_U3 U3_U2 U2_W4 Selec",TRUE,"O","W","W",4,TRUE,13,6,7,159.083333333333,263524,230381,264577,33196,22845,264577,226008,228195,"15:54:54",15,23,7.25,"S","S",17.75,"S","S",5,"S","S",9,"S","M",1053,17.75,7.25,1,1
2017-03-07,"15:54:54",142,5,"Test_Trials_B_4-005-1","B4","TrialProc",6,74,2,3551.312506,2861.283697,22,3,"Y Y V X Z P P","Y4 V1 X1 Z1 P2 P2","Y2_Y4 Y4_V1 V1_X1 X1_Z1 Z1_P2 Selec",TRUE,"Y","P","P",1,TRUE,7,5,2,185.166666666667,292574,274416,293627,18211,22845,293627,268683,271550,"15:54:54",22,16,7.267220927,"S","S",10.25,"S","S",3,"S","S",6,"S","S",1053,10.25,7.26722092687432,1,1
2017-03-07,"15:54:54",143,5,"Test_Trials_B_4-005-1","B4","TrialRevProc",7,41,8,3388.293334,2569.806548,15,4,"O M M S S R R U U T T Q Q Q H B B C C","M2 M3 S3 S4 R4 R3 U3 U4 T4 T1 Q1 Q2 Q1 H1 B1 B2 C2 C3","O2_M2 M2_M3 M3_S3 S3_S4 S4_R4 R4_R3 R3_U3 U3_U4 U4_T4 T4_T1 T1_Q1 Q1_Q2 Q2_Q1 Q1_H1 H1_B1 B1_B2 B2_C2 C2_C3",FALSE,"O","I","C",3,FALSE,19,9,10,207,345781,302746,347474,44728,22845,347474,299773,297187,"15:54:54",15,3,7.905694,"S","M",15,"S","M",4,"S","M",7,"S","M",1693,32,7.90569415042095,2.13333333333333,NA
2017-03-07,"15:54:54",144,5,"Test_Trials_B_4-005-1","B4","TrialProc",8,77,4,4967.951443,2895.914738,23,4,"W U U R J D D C C I I","U4 U1 R1 J1 D1 D4 C4 C3 I2 I2","W4_U4 U4_U1 U1_R1 R1_J1 J1_D1 D1_D4 D4_C4 C4_C3 C3_I2 Selec",TRUE,"W","I","I",1,TRUE,11,7,4,210.8,384097,356687,385150,27463,22845,385150,350874,353780,"15:54:54",23,9,11.47006975,"L","L",21.25,"S","M",6,"S","M",9,"S","M",1053,21.25,11.6538620208067,1,1
2017-03-07,"16:45:56",145,5,"Test_Trials_B_5-005-1","B5","TrialRevProc",1,12,1,5587.192063,2712.950582,22,3,"Y Y V X X T T Q H B B C D E F F N N","Y4 V1 X1 X2 T2 T1 Q1 H1 B1 B2 C2 D2 E2 F2 F3 N3 N3","Y2_Y4 Y4_V1 V1_X1 X1_X2 X2_T2 T2_T1 T1_Q1 Q1_H1 H1_B1 B1_B2 B2_C2 C2_D2 D2_E2 E2_F2 F2_F3 F3_N3 Selec",TRUE,"Y","N","N",3,TRUE,18,12,6,198.823529411765,64132,26510,65185,37675,21045,65185,23790,21070,"16:45:56",22,14,12.9059095,"L","L",33.75,"L","L",10,"L","L",16,"L","L",1053,33.75,12.9059094991403,1,1
2017-03-07,"16:45:56",146,5,"Test_Trials_B_5-005-1","B5","TrialProc",2,8,6,5662.258108,2935.62974,16,2,"P P Z T U U R R R R S S M M O O","P3 Z2 T2 U2 U1 R1 R4 R1 R2 S2 S1 M1 M4 O2 O2","P2_P3 P3_Z2 Z2_T2 T2_U2 U2_U1 U1_R1 R1_R4 R4_R1 R1_R2 R2_S2 S2_S1 S1_M1 M1_M4 M4_O2 Selec",TRUE,"P","O","O",1,TRUE,16,8,8,227.333333333333,114033,76677,115086,37409,21045,115086,70785,73731,"16:45:56",16,15,8.923284149,"S","M",25,"L","L",7,"L","M",11,"L","M",1053,25,8.92328414878737,1,1
2017-03-07,"16:45:56",147,5,"Test_Trials_B_5-005-1","B5","TrialRevProc",3,53,7,3074.75084,2339.014601,12,2,"L L G G H H Q T T X X V Y Y","L1 G1 G2 H2 H3 Q3 T3 T4 X4 X3 V2 Y3 Y3","L2_L1 L1_G1 G1_G2 G2_H2 H2_H3 H3_Q3 Q3_T3 T3_T4 T4_X4 X4_X3 X3_V2 V2_Y3 Selec",TRUE,"L","Y","Y",3,TRUE,14,8,6,132.615384615385,153789,125459,154842,28383,21045,154842,123112,120766,"16:45:56",12,22,8.961724164,"S","M",22.75,"L","M",7,"L","M",13,"L","L",1053,22.75,9.22293337284836,1,1
2017-03-07,"16:45:56",148,5,"Test_Trials_B_5-005-1","B5","TrialRevProc",4,57,4,3551.312506,2402.825646,16,2,"P P Z T T Q Q R R J J K K","P3 Z2 T2 T1 Q1 Q2 R2 R1 J1 J2 K2 K2","P2_P3 P3_Z2 Z2_T2 T2_T1 T1_Q1 Q1_Q2 Q2_R2 R2_R1 R1_J1 J1_J2 J2_K2 Selec",TRUE,"P","K","K",1,TRUE,13,7,6,195,194144,162761,195197,31436,21045,195197,160348,157935,"16:45:56",16,11,11.45098249,"L","L",23,"L","M",6,"S","M",9,"S","M",1053,23,11.4509824905988,1,1
2017-03-07,"16:45:56",149,5,"Test_Trials_B_5-005-1","B5","TrialProc",5,5,5,4174.575203,2785.920882,12,2,"L L G G H H Q Q R R R R U U W W","L1 G1 G2 H2 H3 Q3 Q2 R2 R1 R2 R3 U3 U2 W4 W4","L2_L1 L1_G1 G1_G2 G2_H2 H2_H3 H3_Q3 Q3_Q2 Q2_R2 R2_R1 R1_R2 R2_R3 R3_U3 U3_U2 U2_W4 Selec",TRUE,"L","W","W",4,TRUE,16,7,9,127.066666666667,239766,204356,240819,35463,21045,240819,198757,201557,"16:45:56",12,23,11.50271707,"L","L",24.25,"L","L",6,"S","M",10,"L","M",1053,24.25,11.8769735202197,1,1
2017-03-07,"16:45:56",150,5,"Test_Trials_B_5-005-1","B5","TrialProc",6,68,2,5090.316229,2361.13514,14,3,"N N F F E D D J J K K","N1 F1 F4 E4 D4 D3 J3 J2 K2 K2","N3_N1 N1_F1 F1_F4 F4_E4 E4_D4 D4_D3 D3_J3 J3_J2 J2_K2 Selec",TRUE,"N","K","K",1,TRUE,11,6,5,148.6,275882,250125,276935,25810,21045,276935,245005,247378,"16:45:56",14,11,5.408326913,"S","S",17.5,"S","S",5,"S","S",9,"S","M",1053,17.5,5.40832691319598,1,1
2017-03-07,"16:45:56",151,5,"Test_Trials_B_5-005-1","B5","TrialProc",7,24,8,4607.698604,2342.706841,15,4,"O M M M M E E E E D C B B H H G G A A","M2 M3 M4 M1 E1 E2 E3 E4 D4 C4 B4 B3 H3 H4 G4 G1 A4 A4","O2_M2 M2_M3 M3_M4 M4_M1 M1_E1 E1_E2 E2_E3 E3_E4 E4_D4 D4_C4 C4_B4 B4_B3 B3_H3 H3_H4 H4_G4 G4_G1 G1_A4 Selec",TRUE,"O","A","A",4,TRUE,19,9,10,213,327276,286760,328329,40569,21045,328329,282041,284401,"16:45:56",15,1,11.51086443,"L","L",24,"L","L",8,"L","L",13,"L","L",1053,24,11.1018016555873,1,1
2017-03-07,"16:45:56",152,5,"Test_Trials_B_5-005-1","B5","TrialRevProc",8,74,3,5158.371557,2861.283697,23,4,"W U T X Z P P Z T T Q H H G G A A","U4 T4 X4 Z1 P2 P3 Z2 T2 T1 Q1 H1 H4 G4 G1 A4 A4","W4_U4 U4_T4 T4_X4 X4_Z1 Z1_P2 P2_P3 P3_Z2 Z2_T2 T2_T1 T1_Q1 Q1_H1 H1_H4 H4_G4 G4_G1 G1_A4 Selec",TRUE,"W","Y","A",4,FALSE,17,12,5,152.375,382603,338688,383656,43968,21045,383656,335822,332955,"16:45:56",23,1,16.71264491,"L","L",22.75,"L","M",6,"S","M",9,"S","M",1053,35.25,16.4335784295448,1.54945054945055,NA
2017-03-07,"16:40:06",153,5,"Test_Trials_B_6-005-1","B6","TrialProc",1,36,6,5623.865693,2436.662131,9,3,"I C C B B H Q T T U W W","C1 C4 B4 B3 H3 Q3 T3 T2 U2 W4 W4","I2_C1 C1_C4 C4_B4 B4_B3 B3_H3 H3_Q3 Q3_T3 T3_T2 T2_U2 U2_W4 Selec",TRUE,"I","W","W",4,TRUE,12,8,4,130.636363636364,59141,30424,60194,28770,25040,60194,25065,27518,"16:40:06",9,23,11.47006975,"L","L",21.25,"S","M",6,"S","M",10,"L","M",1053,24.25,11.6538620208067,1.14117647058824,1.14117647058824
2017-03-07,"16:40:06",154,5,"Test_Trials_B_6-005-1","B6","TrialRevProc",2,29,8,5464.230883,2016.320066,14,3,"N N F F E D C C I I","N1 F1 F4 E4 D4 C4 C3 I2 I2","N3_N1 N1_F1 F1_F4 F4_E4 E4_D4 D4_C4 C4_C3 C3_I2 Selec",TRUE,"N","I","I",1,TRUE,10,6,4,180.222222222222,91777,69886,92830,21944,25040,92830,67860,65833,"16:40:06",14,9,9.124143795,"L","M",17,"S","S",5,"S","S",8,"S","S",1053,17,9.61769203083567,1,1
2017-03-07,"16:40:06",155,5,"Test_Trials_B_6-005-1","B6","TrialProc",3,12,5,2453.972263,2712.950582,12,2,"L L G G H H B B C C I I","L1 G1 G2 H2 H1 B1 B2 C2 C3 I2 I2","L2_L1 L1_G1 G1_G2 G2_H2 H2_H1 H1_B1 B1_B2 B2_C2 C2_C3 C3_I2 Selec",TRUE,"L","I","I",1,TRUE,12,6,6,265.363636363636,126853,103749,127906,23157,25040,127906,98310,101029,"16:40:06",12,9,5.408326913,"S","S",13.5,"S","S",5,"S","S",10,"L","M",1053,13.5,5.40832691319598,1,1
2017-03-07,"16:40:06",156,5,"Test_Trials_B_6-005-1","B6","TrialProc",4,71,1,4770.501286,2150.523089,11,2,"K J J J J D D C B B H H G G L L","J4 J3 J2 J1 D1 D4 C4 B4 B3 H3 H4 G4 G3 L3 L3","K2_J4 J4_J3 J3_J2 J2_J1 J1_D1 D1_D4 D4_C4 C4_B4 B4_B3 B3_H3 H3_H4 H4_G4 G4_G3 G3_L3 Selec",TRUE,"K","L","L",3,TRUE,16,8,8,140.866666666667,169128,134692,170182,34490,25040,170182,130373,132532,"16:40:06",11,12,10.0623059,"L","M",20,"S","M",7,"L","M",12,"L","L",1054,20,10.5118980208143,1,1
2017-03-07,"16:40:06",157,5,"Test_Trials_B_6-005-1","B6","TrialRevProc",5,32,4,5623.865693,2623.865693,1,1,"A A G G H H Q T T X Z P P","A3 G3 G2 H2 H3 Q3 T3 T4 X4 Z1 P2 P2","A4_A3 A3_G3 G3_G2 G2_H2 H2_H3 H3_Q3 Q3_T3 T3_T4 T4_X4 X4_Z1 Z1_P2 Selec",TRUE,"A","P","P",1,TRUE,13,8,5,157.25,208311,180247,209364,28117,25040,209364,177607,174968,"16:40:06",1,16,8.284020763,"S","M",21,"S","M",6,"S","M",10,"L","M",1053,21,8.25378700960959,1,1
2017-03-07,"16:40:06",158,5,"Test_Trials_B_6-005-1","B6","TrialProc",6,93,7,4770.501286,2640.413758,14,3,"N N F F E E M M O O","N1 F1 F4 E4 E3 M3 M4 O2 O2","N3_N1 N1_F1 F1_F4 F4_E4 E4_E3 E3_M3 M3_M4 M4_O2 Selec",TRUE,"N","O","O",1,TRUE,10,5,5,194.222222222222,245213,220309,246266,24957,25040,246266,215003,217656,"16:40:06",14,15,5.385164807,"S","S",16,"S","S",4,"S","S",8,"S","S",1053,16,5.3851648071345,1,1
2017-03-07,"16:40:06",159,5,"Test_Trials_B_6-005-1","B6","TrialRevProc",7,38,2,2426.046381,2235.418769,15,4,"O M M S S R R J J K K","M2 M3 S3 S4 R4 R1 J1 J2 K2 K2","O2_M2 M2_M3 M3_S3 S3_S4 S4_R4 R4_R1 R1_J1 J1_J2 J2_K2 Selec",TRUE,"O","K","K",1,TRUE,11,6,5,204.3,284369,255532,285422,28890,25040,285422,253292,251052,"16:40:06",15,11,5.024937811,"S","S",18.5,"S","M",5,"S","S",9,"S","M",1053,19,5.02493781056044,1.02702702702703,1.02702702702703
2017-03-07,"16:40:06",160,5,"Test_Trials_B_6-005-1","B6","TrialRevProc",8,66,3,3660.848893,2579.470897,11,2,"K J J D D C B B H Q T T X X V Y Y","J4 J1 D1 D4 C4 B4 B3 H3 Q3 T3 T4 X4 X3 V2 Y3 Y3","K2_J4 J4_J1 J1_D1 D1_D4 D4_C4 C4_B4 B4_B3 B3_H3 H3_Q3 Q3_T3 T3_T4 T4_X4 X4_X3 X3_V2 V2_Y3 Selec",TRUE,"K","Y","Y",3,TRUE,17,11,6,139.4375,330484,293034,331537,37503,25040,331537,290448,287862,"16:40:06",11,22,13.05038314,"L","L",23.25,"L","M",7,"L","M",11,"L","M",1053,29.25,13.0503831361382,1.25806451612903,1.25806451612903
2017-03-24,"14:23:26",161,6,"Explore-006-1","1",NA,NA,NA,NA,NA,NA,NA,NA,"E D D J R U U W U T X X V Y Y V X Z P P Z X T T Q Q R S S M E E F F N N F F E E E E E D D J R R Q Q H H G G L L G A A G G H H Q T T X X X X V V X Z Z X T T T U U R R R R R R R J J K J J D D C C I C C C C B B H Q Q Q H H G G A A G L L G G H H Q T T X Z P P Z X X V V X X X X X X T U W U U R R S S M E E F F","D4 D3 J3 R3 U3 U2 W4 U4 T4 X4 X3 V2 Y3 Y4 V1 X1 Z1 P2 P3 Z2 X2 T2 T1 Q1 Q2 R2 S2 S1 M1 E1 E2 F2 F3 N3 N1 F1 F4 E4 E3 E2 E3 E4 D4 D3 J3 R3 R4 Q4 Q1 H1 H4 G4 G3 L2 L1 G1 A4 A3 G3 G2 H2 H3 Q3 T3 T4 X4 X3 X2 X3 V2 V1 X1 Z1 Z2 X2 T2 T1 T2 U2 U1 R1 R4 R3 R2 R1 R4 R1 J1 J2 K2 J4 J1 D1 D4 C4 C3 I2 C1 C2 C3 C4 B4 B3 H3 Q3 Q2 Q1 H1 H4 G4 G1 A4 A3 G3 L2 L1 G1 G2 H2 H3 Q3 T3 T4 X4 Z1 P2 P3 Z2 X2 X3 V2 V1 X1 X2 X3 X4 X3 X2 T2 U2 W4 U4 U1 R1 R2 S2 S1 M1 E1 E2 F2 F3 NA","E4_D4 D4_D3 D3_J3 J3_R3 R3_U3 U3_U2 U2_W4 W4_U4 U4_T4 T4_X4 X4_X3 X3_V2 V2_Y3 Y2_Y4 Y4_V1 V1_X1 X1_Z1 Z1_P2 P2_P3 P3_Z2 Z2_X2 X2_T2 T2_T1 T1_Q1 Q1_Q2 Q2_R2 R2_S2 S2_S1 S1_M1 M1_E1 E1_E2 E2_F2 F2_F3 F3_N3 N3_N1 N1_F1 F1_F4 F4_E4 E4_E3 E3_E2 E2_E3 E3_E4 E4_D4 D4_D3 D3_J3 J3_R3 R3_R4 R4_Q4 Q4_Q1 Q1_H1 H1_H4 H4_G4 G4_G3 G3_L2 L2_L1 L1_G1 G1_A4 A4_A3 A3_G3 G3_G2 G2_H2 H2_H3 H3_Q3 Q3_T3 T3_T4 T4_X4 X4_X3 X3_X2 X2_X3 X3_V2 V2_V1 V1_X1 X1_Z1 Z1_Z2 Z2_X2 X2_T2 T2_T1 T1_T2 T2_U2 U2_U1 U1_R1 R1_R4 R4_R3 R3_R2 R2_R1 R1_R4 R4_R1 R1_J1 J1_J2 J2_K2 K2_J4 J4_J1 J1_D1 D1_D4 D4_C4 C4_C3 C3_I2 I2_C1 C1_C2 C2_C3 C3_C4 C4_B4 B4_B3 B3_H3 H3_Q3 Q3_Q2 Q2_Q1 Q1_H1 H1_H4 H4_G4 G4_G1 G1_A4 A4_A3 A3_G3 G3_L2 L2_L1 L1_G1 G1_G2 G2_H2 H2_H3 H3_Q3 Q3_T3 T3_T4 T4_X4 X4_Z1 Z1_P2 P2_P3 P3_Z2 Z2_X2 X2_X3 X3_V2 V2_V1 V1_X1 X1_X2 X2_X3 X3_X4 X4_X3 X3_X2 X2_T2 T2_U2 U2_W4 W4_U4 U4_U1 U1_R1 R1_R2 R2_S2 S2_S1 S1_M1 M1_E1 E1_E2 E2_F2 F2_F3",NA,NA,NA,"F",3,NA,153,82,71,765.75,NA,67464,549769,482305,67438,NA,NA,NA,"14:23:26",NA,NA,NA,NA,NA,NA,NA,NA,NA,NA,NA,NA,NA,NA,NA,264.5,3,NA,NA
2017-03-24,"14:32:58",162,6,"Explore-006-2","2",NA,NA,NA,NA,NA,NA,NA,NA,"B H H H H G G G H H Q T T X Z P P Z X X V V X X T U W U U R R S S M E E F F F E D C B B H H G G A A G L L G G H H Q Q Q T T X Z P P Z X X V V X X T U U R R Q Q Q R R R R R Q Q H H G G A A G G H H Q Q R R R R J D D C C I C C D E E M M O M M S S S M M M E E F F F E D D J R R R R Q Q Q Q T T T T T T X X V V X X T U U U W U U R J J K J J D D C C I C C D","H3 H4 H1 H4 G4 G1 G2 H2 H3 Q3 T3 T4 X4 Z1 P2 P3 Z2 X2 X3 V2 V1 X1 X2 T2 U2 W4 U4 U1 R1 R2 S2 S1 M1 E1 E2 F2 F3 F4 E4 D4 C4 B4 B3 H3 H4 G4 G1 A4 A3 G3 L2 L1 G1 G2 H2 H3 Q3 Q2 Q3 T3 T4 X4 Z1 P2 P3 Z2 X2 X3 V2 V1 X1 X2 T2 U2 U1 R1 R4 Q4 Q1 Q2 R2 R1 R4 R3 R4 Q4 Q1 H1 H4 G4 G1 A4 A3 G3 G2 H2 H3 Q3 Q2 R2 R3 R4 R1 J1 D1 D4 C4 C3 I2 C1 C2 D2 E2 E3 M3 M4 O2 M2 M3 S3 S4 S1 M1 M4 M1 E1 E2 F2 F3 F4 E4 D4 D3 J3 R3 R2 R1 R4 Q4 Q1 Q2 Q3 T3 T4 T1 T2 T1 T4 X4 X3 V2 V1 X1 X2 T2 U2 U1 U2 W4 U4 U1 R1 J1 J2 K2 J4 J1 D1 D4 C4 C3 I2 C1 C2 D2 NA","B3_H3 H3_H4 H4_H1 H1_H4 H4_G4 G4_G1 G1_G2 G2_H2 H2_H3 H3_Q3 Q3_T3 T3_T4 T4_X4 X4_Z1 Z1_P2 P2_P3 P3_Z2 Z2_X2 X2_X3 X3_V2 V2_V1 V1_X1 X1_X2 X2_T2 T2_U2 U2_W4 W4_U4 U4_U1 U1_R1 R1_R2 R2_S2 S2_S1 S1_M1 M1_E1 E1_E2 E2_F2 F2_F3 F3_F4 F4_E4 E4_D4 D4_C4 C4_B4 B4_B3 B3_H3 H3_H4 H4_G4 G4_G1 G1_A4 A4_A3 A3_G3 G3_L2 L2_L1 L1_G1 G1_G2 G2_H2 H2_H3 H3_Q3 Q3_Q2 Q2_Q3 Q3_T3 T3_T4 T4_X4 X4_Z1 Z1_P2 P2_P3 P3_Z2 Z2_X2 X2_X3 X3_V2 V2_V1 V1_X1 X1_X2 X2_T2 T2_U2 U2_U1 U1_R1 R1_R4 R4_Q4 Q4_Q1 Q1_Q2 Q2_R2 R2_R1 R1_R4 R4_R3 R3_R4 R4_Q4 Q4_Q1 Q1_H1 H1_H4 H4_G4 G4_G1 G1_A4 A4_A3 A3_G3 G3_G2 G2_H2 H2_H3 H3_Q3 Q3_Q2 Q2_R2 R2_R3 R3_R4 R4_R1 R1_J1 J1_D1 D1_D4 D4_C4 C4_C3 C3_I2 I2_C1 C1_C2 C2_D2 D2_E2 E2_E3 E3_M3 M3_M4 M4_O2 O2_M2 M2_M3 M3_S3 S3_S4 S4_S1 S1_M1 M1_M4 M4_M1 M1_E1 E1_E2 E2_F2 F2_F3 F3_F4 F4_E4 E4_D4 D4_D3 D3_J3 J3_R3 R3_R2 R2_R1 R1_R4 R4_Q4 Q4_Q1 Q1_Q2 Q2_Q3 Q3_T3 T3_T4 T4_T1 T1_T2 T2_T1 T1_T4 T4_X4 X4_X3 X3_V2 V2_V1 V1_X1 X1_X2 X2_T2 T2_U2 U2_U1 U1_U2 U2_W4 W4_U4 U4_U1 U1_R1 R1_J1 J1_J2 J2_K2 K2_J4 J4_J1 J1_D1 D1_D4 D4_C4 C4_C3 C3_I2 I2_C1 C1_C2 C2_D2",NA,NA,NA,"D",1,NA,176,90,86,413.125714285714,NA,32365,513229,480864,32349,NA,NA,NA,"14:32:58",NA,NA,NA,NA,NA,NA,NA,NA,NA,NA,NA,NA,NA,NA,NA,291,4.5,NA,NA
2017-03-24,"15:20:53",163,6,"Test_Trials_C_1-006-1","C1","TrialProc",1,39,7,4294.566965,2394.694975,11,2,"K J J R U U W W","J4 J3 R3 U3 U2 W4 W4","K2_J4 J4_J3 J3_R3 R3_U3 U3_U2 U2_W4 Selec",TRUE,"K","W","W",4,TRUE,8,5,3,536.714285714286,48889,23825,49942,25117,18985,49942,19012,21425,"15:20:53",11,23,12.26019984,"L","L",15.75,"S","S",4,"S","S",6,"S","S",1053,15.75,12.2601998352392,1,1
2017-03-24,"15:20:53",164,6,"Test_Trials_C_1-006-1","C1","TrialRevProc",2,16,4,5828.614043,2847.359876,1,1,"A A G G H H H H Q Q R S S M M O O","A3 G3 G2 H2 H1 H4 H3 Q3 Q2 R2 S2 S1 M1 M4 O2 O2","A4_A3 A3_G3 G3_G2 G2_H2 H2_H1 H1_H4 H4_H3 H3_Q3 Q3_Q2 Q2_R2 R2_S2 S2_S1 S1_M1 M1_M4 M4_O2 Selec",TRUE,"A","O","O",1,TRUE,17,8,9,275.5,98870,59954,99923,38969,18985,99923,57101,54248,"15:20:53",1,15,11.51086443,"L","L",24,"L","L",8,"L","L",14,"L","L",1053,26,11.1018016555873,1.08333333333333,1.08333333333333
2017-03-24,"15:20:53",165,6,"Test_Trials_C_1-006-1","C1","TrialRevProc",3,85,8,5090.316229,2166.05289,9,3,"I C C D D J R R Q Q H H G G A A","C1 C2 D2 D3 J3 R3 R4 Q4 Q1 H1 H4 G4 G1 A4 A4","I2_C1 C1_C2 C2_D2 D2_D3 D3_J3 J3_R3 R3_R4 R4_Q4 Q4_Q1 Q1_H1 H1_H4 H4_G4 G4_G1 G1_A4 Selec",TRUE,"I","P","A",4,FALSE,16,9,7,581.666666666667,152597,110108,153650,42542,18985,153650,107935,105762,"15:20:53",9,1,6.264982043,"S","S",12,"S","S",5,"S","S",10,"L","M",1053,29.5,5.40832691319598,2.45833333333333,NA
2017-03-24,"15:20:53",166,6,"Test_Trials_C_1-006-1","C1","TrialProc",4,70,2,5069.7056,2287.569423,15,4,"O M M E E D C C I I","M2 M1 E1 E4 D4 C4 C3 I2 I2","O2_M2 M2_M1 M1_E1 E1_E4 E4_D4 D4_C4 C4_C3 C3_I2 Selec",TRUE,"O","I","I",1,TRUE,10,6,4,304.444444444444,188499,163342,189552,25210,18985,189552,158756,161049,"15:20:53",15,9,5.315072906,"S","S",18,"S","M",5,"S","S",8,"S","S",1053,18,5.70087712549569,1,1
2017-03-24,"15:20:53",167,6,"Test_Trials_C_1-006-1","C1","TrialRevProc",5,35,3,5241.141116,2158.371557,11,2,"K J J D D E F F N N","J4 J1 D1 D2 E2 F2 F3 N3 N3","K2_J4 J4_J1 J1_D1 D1_D2 D2_E2 E2_F2 F2_F3 F3_N3 Selec",TRUE,"K","N","N",3,TRUE,10,6,4,419.222222222222,223788,198978,224842,24864,18985,224842,196805,194632,"15:20:53",11,14,5.408326913,"S","S",17.5,"S","S",5,"S","S",8,"S","S",1054,17.5,5.40832691319598,1,1
2017-03-24,"15:20:53",168,6,"Test_Trials_C_1-006-1","C1","TrialProc",6,22,6,5828.614043,2394.442406,14,3,"N N F F E D D J J J J K K","N1 F1 F4 E4 D4 D3 J3 J2 J1 J2 K2 K2","N3_N1 N1_F1 F1_F4 F4_E4 E4_D4 D4_D3 D3_J3 J3_J2 J2_J1 J1_J2 J2_K2 Selec",TRUE,"N","A","K",1,FALSE,13,6,7,378.333333333333,267170,234894,268223,32329,18985,268223,230094,232494,"15:20:53",14,11,5.408326913,"S","S",17.5,"S","S",5,"S","S",9,"S","M",1053,17.5,5.40832691319598,1,NA
2017-03-24,"15:20:53",169,6,"Test_Trials_C_1-006-1","C1","TrialProc",7,94,1,4885.385565,2159.686377,1,1,"A A G G G L L","A3 G3 G2 G3 L3 L3","A4_A3 A3_G3 G3_G2 G2_G3 G3_L3 Selec",TRUE,"A","P","L",3,FALSE,7,3,4,592.333333333333,293567,278409,294620,15211,18985,294620,274063,276236,"15:20:53",1,12,6.08276253,"S","S",6,"S","S",2,"S","S",3,"S","S",1053,6,6,1,NA
2017-03-24,"15:20:53",170,6,"Test_Trials_C_1-006-1","C1","TrialRevProc",8,74,5,2861.283697,2861.283697,23,4,"W U T X X X X V Y Y","U4 T4 X4 X3 X4 X3 V2 Y3 Y3","W4_U4 U4_T4 T4_X4 X4_X3 X3_X4 X4_X3 X3_V2 V2_Y3 Selec",TRUE,"W","Y","Y",3,TRUE,10,6,4,881,334642,305246,335696,29450,18985,335696,302379,299513,"15:20:53",23,22,4,"S","S",14.5,"S","S",5,"S","S",7,"S","S",1054,14.5,4,1,1
2017-03-24,"14:51:35",171,6,"Test_Trials_C_2-006-1","C2","TrialRevProc",1,74,8,3628.061645,2861.283697,16,2,"P P Z T T Q Q R S S M E E F F N N","P3 Z2 T2 T1 Q1 Q2 R2 S2 S1 M1 E1 E2 F2 F3 N3 N3","P2_P3 P3_Z2 Z2_T2 T2_T1 T1_Q1 Q1_Q2 Q2_R2 R2_S2 S2_S1 S1_M1 M1_E1 E1_E2 E2_F2 F2_F3 F3_N3 Selec",TRUE,"P","N","N",3,TRUE,17,10,7,599.6875,69168,24827,70221,44394,19053,70221,21947,19067,"14:51:35",16,14,14.25219281,"L","L",33.5,"L","L",9,"L","L",13,"L","L",1053,33.5,14.2521928137392,1,1
2017-03-24,"14:51:35",172,6,"Test_Trials_C_2-006-1","C2","TrialRevProc",2,51,6,4429.900691,2464.230883,9,3,"I C C C C D D J R R R R Q Q H B B C","C1 C4 C3 C2 D2 D3 J3 R3 R2 R3 R4 Q4 Q1 H1 B1 B2 C2","I2_C1 C1_C4 C4_C3 C3_C2 C2_D2 D2_D3 D3_J3 J3_R3 R3_R2 R2_R3 R3_R4 R4_Q4 Q4_Q1 Q1_H1 H1_B1 B1_B2 B2_C2",FALSE,"I","A","C",1,FALSE,18,8,10,525.882352941176,123789,78820,124508,45688,19053,124508,76341,73861,"14:51:35",9,3,3,"S","S",3,"S","S",1,"S","S",1,"S","S",719,28,3,9.33333333333333,NA
2017-03-24,"14:51:35",173,6,"Test_Trials_C_2-006-1","C2","TrialProc",3,90,7,3388.293334,2624.268464,22,3,"Y Y V X X T U U R R R U U U R J J K","Y4 V1 X1 X2 T2 U2 U1 R1 R2 R3 U3 U2 U1 R1 J1 J2 K2","Y2_Y4 Y4_V1 V1_X1 X1_X2 X2_T2 T2_U2 U2_U1 U1_R1 R1_R2 R2_R3 R3_U3 U3_U2 U2_U1 U1_R1 R1_J1 J1_J2 J2_K2",FALSE,"Y","W","K",1,FALSE,18,9,9,504.941176470588,178889,134227,184448,50221,19053,184448,128948,131588,"14:51:35",22,11,13.05038314,"L","L",23.25,"L","M",7,"L","M",12,"L","L",5559,30.75,13.0503831361382,1.32258064516129,NA
2017-03-24,"14:51:35",174,6,"Test_Trials_C_2-006-1","C2","TrialProc",4,36,3,4859.382159,2436.662131,15,4,"O M M M M E E D C C C C I I","M2 M3 M4 M1 E1 E4 D4 C4 C3 C2 C3 I2 I2","O2_M2 M2_M3 M3_M4 M4_M1 M1_E1 E1_E4 E4_D4 D4_C4 C4_C3 C3_C2 C2_C3 C3_I2 Selec",TRUE,"O","Y","I",1,FALSE,14,6,8,465.615384615385,228483,192754,229536,35782,19053,229536,187848,190301,"14:51:35",15,9,5.315072906,"S","S",18,"S","M",5,"S","S",8,"S","S",1053,18,5.70087712549569,1,NA
2017-03-24,"14:51:35",175,6,"Test_Trials_C_2-006-1","C2","TrialProc",5,21,4,5624.268464,2607.698604,23,4,"W U T T T X Z P P","U4 T4 T1 T4 X4 Z1 P2 P2","W4_U4 U4_T4 T4_T1 T1_T4 T4_X4 X4_Z1 Z1_P2 Selec",TRUE,"W","L","P",1,FALSE,9,6,3,1483.25,271665,239655,272718,32063,19053,272718,234416,237042,"14:51:35",23,16,10.3350133,"L","M",14.25,"S","S",4,"S","S",4,"S","S",1053,14.25,10.3350133042972,1,NA
2017-03-24,"14:51:35",176,6,"Test_Trials_C_2-006-1","C2","TrialProc",6,24,1,4967.951443,2342.706841,9,3,"I C C B B H H G G A A","C1 C4 B4 B3 H3 H4 G4 G1 A4 A4","I2_C1 C1_C4 C4_B4 B4_B3 B3_H3 H3_H4 H4_G4 G4_G1 G1_A4 Selec",TRUE,"I","K","A",4,FALSE,11,6,5,589.1,309034,283077,310087,26010,19053,310087,278357,280717,"14:51:35",9,1,6.264982043,"S","S",12,"S","S",5,"S","S",10,"L","M",1053,12,5.40832691319598,1,NA
2017-03-24,"14:51:35",177,6,"Test_Trials_C_2-006-1","C2","TrialRevProc",7,55,2,5069.7056,2453.213607,16,2,"P P Z T T T U U R J D D C C C B B H H","P3 Z2 T2 T1 T2 U2 U1 R1 J1 D1 D4 C4 C3 C4 B4 B3 H3 H4","P2_P3 P3_Z2 Z2_T2 T2_T1 T1_T2 T2_U2 U2_U1 U1_R1 R1_J1 J1_D1 D1_D4 D4_C4 C4_C3 C3_C4 C4_B4 B4_B3 B3_H3 H3_H4",FALSE,"P","I","H",4,FALSE,19,9,10,351.722222222222,365001,320006,366627,46621,19053,366627,317539,315073,"14:51:35",16,8,6.600189,"S","M",15.75,"L","M",4,"S","M",6,"S","M",1626,29.25,6.60018939122204,1.85714285714286,NA
2017-03-24,"14:51:35",178,6,"Test_Trials_C_2-006-1","C2","TrialRevProc",8,79,5,4339.014601,2882.4357,15,4,"O M M M M E E D C C C C I I","M2 M3 M4 M1 E1 E4 D4 C4 C3 C4 C3 I2 I2","O2_M2 M2_M3 M3_M4 M4_M1 M1_E1 E1_E4 E4_D4 D4_C4 C4_C3 C3_C4 C4_C3 C3_I2 Selec",TRUE,"O","L","I",1,FALSE,14,6,8,716.692307692308,415822,377493,416875,38382,19053,416875,374600,371707,"14:51:35",15,9,5.315072906,"S","S",18,"S","M",5,"S","S",8,"S","S",1053,18,5.70087712549569,1,NA
2017-03-24,"14:58:48",179,6,"Test_Trials_C_3-006-1","C3","TrialRevProc",1,61,8,5241.141116,2239.434682,14,3,"N","N3","Selec",TRUE,"N","L","N",3,FALSE,2,1,1,1893,48173,46066,49226,2160,41538,49226,43813,41560,"14:58:48",NA,NA,NA,NA,NA,NA,NA,NA,NA,NA,NA,NA,NA,NA,1053,0,4.60977222864644,NA,NA
2017-03-24,"14:58:48",180,6,"Test_Trials_C_3-006-1","C3","TrialProc",2,69,1,4577.013529,2275.109357,16,2,"P P Z T T Q Q R S S S R R J J K","P3 Z2 T2 T1 Q1 Q2 R2 S2 S1 S4 R4 R1 J1 J2 K2","P2_P3 P3_Z2 Z2_T2 T2_T1 T1_Q1 Q1_Q2 Q2_R2 R2_S2 S2_S1 S1_S4 S4_R4 R4_R1 R1_J1 J1_J2 J2_K2",FALSE,"P","K","K",1,TRUE,16,8,8,720,103433,59051,108992,49941,41538,108992,54479,56772,"14:58:48",16,11,11.45098249,"L","L",23,"L","M",6,"S","M",9,"S","M",5559,30,11.4509824905988,1.30434782608696,1.30434782608696
2017-03-24,"14:58:48",181,6,"Test_Trials_C_3-006-1","C3","TrialRevProc",3,85,6,5090.316229,2166.05289,14,3,"N N F F E D D J J J R R R R Q Q T T","N1 F1 F4 E4 D4 D3 J3 J2 J3 R3 R2 R3 R4 Q4 Q3 T3 T4","N3_N1 N1_F1 F1_F4 F4_E4 E4_D4 D4_D3 D3_J3 J3_J2 J2_J3 J3_R3 R3_R2 R2_R3 R3_R4 R4_Q4 Q4_Q3 Q3_T3 T3_T4",FALSE,"N","Y","T",4,FALSE,18,7,11,452.117647058824,161680,117925,163239,45314,41538,163239,115752,113579,"14:58:48",14,21,13.174312,"L","L",27.25,"L","L",8,"L","L",10,"L","L",1559,27.25,13.1743121262554,1,NA
2017-03-24,"14:58:48",182,6,"Test_Trials_C_3-006-1","C3","TrialProc",4,20,4,4394.694975,2970.298489,16,2,"P P Z T T T X X V Y Y","P3 Z2 T2 T1 T4 X4 X3 V2 Y3 Y3","P2_P3 P3_Z2 Z2_T2 T2_T1 T1_T4 T4_X4 X4_X3 X3_V2 V2_Y3 Selec",TRUE,"P","A","Y",3,FALSE,11,6,5,670.6,202662,174318,203715,28397,41538,203715,168346,171332,"14:58:48",16,22,7.267220927,"S","S",10.25,"S","S",3,"S","S",6,"S","S",1053,12.75,7.26722092687432,1.24390243902439,NA
2017-03-24,"14:58:48",183,6,"Test_Trials_C_3-006-1","C3","TrialProc",5,2,3,5611.124262,2537.144697,1,1,"A A G G H H Q T T X X V Y Y","A3 G3 G2 H2 H3 Q3 T3 T4 X4 X3 V2 Y3 Y3","A4_A3 A3_G3 G3_G2 G2_H2 H2_H3 H3_Q3 Q3_T3 T3_T4 T4_X4 X4_X3 X3_V2 V2_Y3 Selec",TRUE,"A","K","Y",3,FALSE,14,8,6,493.384615384615,245350,213220,246403,32183,41538,246403,208128,210674,"14:58:48",1,22,14.80920322,"L","L",21.25,"S","M",7,"L","M",13,"L","L",1053,21.25,14.6308748883995,1,NA
